Time,Acc_X,Acc_Y,Acc_Z,Meg,Gyr_X,Gyr_Y,Gyr_Z,Ore
18:19:19:105,-0.534,3.956,9.5,37.0063,-0.0098,0.3422,0.6786,0.1382
18:19:19:126,-0.342,3.813,9.114,38.1413,-0.1067,0.0727,0.6658,0.135
18:19:19:145,-0.098,3.6551,8.6569,37.7659,-0.2303,-0.0498,0.6454,0.1356
18:19:19:166,0.152,3.497,8.882,37.7659,-0.275,0.0439,0.6178,0.1346
18:19:19:185,0.1931,3.3581,9.1601,37.415,-0.1781,0.1845,0.5666,0.1325
18:19:19:205,0.1481,3.437,9.1691,37.415,-0.0407,0.2974,0.507,0.1304
18:19:19:224,0.0491,3.614,9.1639,37.0632,0.0308,0.3028,0.458,0.1291
18:19:19:244,-0.033,3.7511,8.987,37.0632,0.0436,0.2058,0.4122,0.1289
18:19:19:264,-0.11,3.9971,8.5751,37.8954,0.0073,0.1313,0.3674,0.1288
18:19:19:285,-0.23,4.241,8.4851,38.254,-0.0854,0.1664,0.36,0.1294
18:19:19:304,-0.4571,4.308,9.05,37.5596,-0.1567,0.257,0.393,0.13
18:19:19:325,-0.488,4.0691,9.689,37.9298,-0.1269,0.2687,0.4271,0.1307
18:19:19:345,-0.44,4.002,9.758,37.9298,-0.0023,0.1654,0.4048,0.1316
18:19:19:364,-0.515,4.05,9.033,37.247,0.0712,0.0642,0.3835,0.1325
18:19:19:384,-0.572,3.992,8.597,37.6272,0.0371,0.0674,0.3824,0.1335
18:19:19:404,-0.5891,4.004,8.942,37.604,0.0169,0.0481,0.3674,0.1344
18:19:19:428,-0.7901,4.083,9.1451,38.1886,0.0616,-0.0956,0.3631,0.1353
18:19:19:444,-0.7091,4.184,8.712,38.1823,0.0499,-0.1787,0.3685,0.1359
18:19:19:466,-0.476,4.28,8.681,38.1823,0.0073,-0.1766,0.3802,0.136
18:19:19:483,-0.3251,4.502,8.784,37.9351,-0.0322,-0.1702,0.393,0.1356
18:19:19:507,-0.39,4.517,9.033,38.4503,-0.1067,-0.1233,0.4484,0.1348
18:19:19:526,-0.1151,4.217,9.7061,37.9122,-0.1312,-0.133,0.5017,0.1336
18:19:19:543,0.5261,3.9971,10.1801,38.5559,-0.0524,-0.2266,0.4825,0.1321
18:19:19:564,0.7871,3.9371,9.957,37.2999,0.0308,-0.3641,0.4228,0.1299
18:19:19:584,0.756,3.81,9.4331,38.1776,0.0425,-0.3428,0.3664,0.127
18:19:19:604,0.507,3.858,9.5981,37.9663,0.019,-0.1936,0.329,0.1237
18:19:19:625,-0.002,3.813,10.125,38.5486,0.0126,-0.1797,0.3503,0.1205
18:19:19:645,-0.258,3.8561,9.725,38.5261,0.0351,-0.3354,0.4133,0.1179
18:19:19:665,-0.0761,3.7361,9.045,38.5313,-0.0268,-0.429,0.5496,0.1154
18:19:19:684,0.7991,3.399,9.0161,38.3348,-0.0023,-0.3576,0.6582,0.1127
18:19:19:705,1.5701,3.15,8.7221,38.1333,0.2054,-0.2064,0.6678,0.1093
18:19:19:726,1.689,3.15,7.623,38.1107,0.3354,-0.0114,0.6508,0.106
18:19:19:744,1.5,3.248,7.1171,38.7428,0.1682,0.2155,0.7105,0.1038
18:19:19:766,1.5101,2.922,7.9241,38.8811,-0.0747,0.3273,0.8085,0.1029
18:19:19:785,1.955,2.439,8.7889,38.8635,-0.111,0.373,0.8128,0.1026
18:19:19:804,2.1611,2.3951,8.963,38.7103,-0.014,0.3997,0.7105,0.1022
18:19:19:829,2.027,2.7311,8.762,38.5867,0.0584,0.4295,0.6189,0.1021
18:19:19:844,1.826,3.0611,8.595,38.9253,0.0616,0.4434,0.5848,0.1026
18:19:19:864,1.797,3.384,8.592,38.8028,0.0329,0.4232,0.5613,0.1036
18:19:19:886,1.7681,3.774,8.417,38.7971,0.0126,0.3997,0.5485,0.105
18:19:19:903,1.7591,3.983,8.396,39.6899,-0.0257,0.3912,0.5741,0.1064
18:19:19:924,1.809,4.038,8.568,38.6588,-0.03,0.2996,0.6093,0.1078
18:19:19:942,1.907,3.8651,8.286,38.5882,-0.0214,0.1888,0.6369,0.109
18:19:19:963,2.013,3.746,8.008,38.945,-0.0556,0.2155,0.6285,0.1098
18:19:19:982,1.905,3.698,8.219,38.5158,-0.1152,0.2772,0.6189,0.1101
18:19:20:002,1.848,3.588,8.5751,39.7923,-0.1621,0.2698,0.6061,0.1101
18:19:20:024,1.881,3.5711,8.7,38.8419,-0.1631,0.2687,0.5709,0.1099
18:19:20:043,1.857,3.71,8.882,38.8061,-0.1334,0.3124,0.5283,0.1094
18:19:20:063,1.694,3.8561,8.9471,38.8005,-0.1195,0.3337,0.4921,0.1089
18:19:20:083,1.484,3.9041,9.0881,38.7828,-0.1386,0.355,0.4697,0.1087
18:19:20:103,1.2821,3.894,9.401,38.7652,-0.1248,0.338,0.443,0.1087
18:19:20:125,1.038,3.968,9.519,38.7652,-0.0396,0.3017,0.425,0.1089
18:19:20:143,0.878,3.7721,9.413,38.7828,0.0393,0.2175,0.4378,0.1094
18:19:20:163,0.849,3.636,9.303,39.1746,0.0733,0.0961,0.4122,0.1102
18:19:20:186,0.626,3.801,9.2,39.21,0.069,0.0631,0.3696,0.1112
18:19:20:203,1.101,3.2141,8.81,39.21,0.0701,0.2953,0.2545,0.1122
18:19:20:225,0.828,4.469,9.6431,39.2095,0.0436,0.3849,0.1246,0.113
18:19:20:243,0,4.9811,9.911,39.1921,0.0254,0.4359,0.1448,0.1146
18:19:20:263,-0.6491,5.4221,10.3061,39.1852,-0.095,0.191,0.4953,0.117
18:19:20:283,-0.6221,4.2371,10.476,39.2444,-0.2122,-0.0157,0.7329,0.1192
18:19:20:302,-0.2539,3.32,11.235,39.2965,-0.1855,-0.0892,0.7989,0.12
18:19:20:326,0.4661,2.149,11.18,38.3326,0.0243,-0.0062,0.7605,0.1193
18:19:20:343,0.404,2.108,10.8281,39.3502,0.2012,0.2346,0.5826,0.1178
18:19:20:362,0.368,2.022,10.773,39.4456,0.2501,0.2709,0.655,0.1172
18:19:20:383,0.143,1.926,9.852,38.956,0.247,0.1654,0.7392,0.1179
18:19:20:403,0.152,1.893,9.234,38.6364,0.0968,0.0535,0.8096,0.1192
18:19:20:422,0.5689,1.6511,9.567,39.2096,-0.0908,-0.1435,0.7701,0.1202
18:19:20:443,1.115,1.5431,9.921,38.9188,-0.0982,-0.3812,0.6189,0.1199
18:19:20:462,1.2821,2.063,9.3821,39.8377,0.0755,-0.4887,0.3835,0.118
18:19:20:484,1.1531,2.925,8.1611,38.9017,0.1778,-0.4653,0.4378,0.1152
18:19:20:502,1.11,2.96,7.199,39.9913,0.0436,-0.3449,0.5368,0.1124
18:19:20:522,0.8441,3.147,7.359,38.6494,0.0297,0.0813,0.6178,0.1098
18:19:20:542,0.885,3.164,8.145,39.2563,0.1,0.3571,0.7254,0.1081
18:19:20:562,0.8441,3.056,8.4731,39.2393,0.2043,0.3454,0.7243,0.1078
18:19:20:584,0.71,3.2051,8.18,39.4251,0.2204,0.1547,0.671,0.1087
18:19:20:602,0.686,3.533,8.03,39.648,0.1756,0.0279,0.653,0.1103
18:19:20:622,0.744,3.8531,8.097,40.0606,0.1107,-0.0616,0.6838,0.112
18:19:20:643,1.079,3.695,8.25,39.865,0.0477,-0.1458,0.6828,0.1132
18:19:20:662,1.361,3.588,8.4611,40.2805,0.0786,-0.1191,0.6369,0.1138
18:19:20:682,1.7921,3.444,8.8841,40.097,0.2299,0.0993,0.5422,0.1139
18:19:20:702,1.9721,3.626,9.291,40.097,0.4738,0.3145,0.3546,0.1141
18:19:20:725,1.9001,4.05,9.117,39.199,0.6773,0.4444,0.1991,0.1155
18:19:20:742,1.601,4.44,8.7889,39.6394,0.7413,0.5159,0.1033,0.1191
18:19:20:762,1.3901,4.818,8.664,39.6265,0.6497,0.6288,0.0617,0.1249
18:19:20:782,0.6671,5.462,9.447,40.6451,0.4962,0.7352,0.1374,0.1322
18:19:20:802,0.279,5.517,10.656,39.7805,0.3279,0.6511,0.4207,0.1401
18:19:20:822,1.0571,4.632,11.487,39.229,0.1745,0.3241,0.6061,0.1476
18:19:20:843,2.331,4.095,11.6711,40.0056,0.051,-0.0488,0.4879,0.1535
18:19:20:862,2.913,4.344,11.769,39.4967,0.0542,-0.2809,0.1991,0.1568
18:19:20:884,2.484,4.6001,11.156,39.4967,0.0957,-0.3652,0.0586,0.1579
18:19:20:903,1.8281,4.0931,11.1731,39.4967,0.0872,-0.2384,0.1044,0.1578
18:19:20:922,2.0531,2.913,12.033,39.9899,0.2501,-0.1094,0.1522,0.1574
18:19:20:943,2.405,2.429,11.628,39.1497,0.6688,-0.0989,-0.017,0.1574
18:19:20:962,2.1521,2.874,10.2371,39.2396,0.9575,-0.1276,-0.1471,0.1588
18:19:20:985,1.5431,3.1661,8.453,39.735,0.8968,-0.3119,-0.195,0.1626
18:19:21:001,1.103,3.6761,6.849,39.218,0.459,-0.4876,-0.096,0.1677
18:19:21:021,1.151,3.87,6.7061,39.1939,-0.0822,-0.4929,0.099,0.1722
18:19:21:041,1.476,3.423,7.568,39.1994,-0.3517,-0.3832,0.2673,0.1744
18:19:21:062,2.063,2.7521,8.1851,38.998,-0.2463,-0.2692,0.2727,0.1736
18:19:21:097,2.1041,2.4461,7.4651,38.998,0.034,-0.0754,0.1607,0.1708
18:19:21:101,1.826,2.403,6.555,39.2735,0.1713,0.193,0.0436,0.168
18:19:21:122,1.469,2.4911,6.564,39.4727,0.1574,0.3145,-0.098,0.1666
18:19:21:142,0.8921,3.15,6.54,39.4886,0.1532,0.2016,-0.2024,0.1667
18:19:21:161,0.758,3.81,6.0971,39.4727,0.0542,0.0066,-0.1642,0.1679
18:19:21:183,1.239,4.098,5.801,39.4727,-0.0939,-0.1116,-0.1162,0.1694
18:19:21:202,1.709,4.112,5.9321,38.998,-0.1301,0.0184,-0.1503,0.1703
18:19:21:221,1.512,4.4141,6.356,39.4727,-0.0151,0.3625,-0.2441,0.1703
18:19:21:242,0.933,5.0171,7.007,39.4727,0.0968,0.7055,-0.2558,0.1706
18:19:21:261,0.444,5.453,7.967,39.2234,0.1181,0.8503,-0.1716,0.1723
18:19:21:282,-0.033,5.5151,9.27,38.8861,0.0989,0.7576,-0.0363,0.1757
18:19:21:302,0.0521,5.642,10.098,39.4637,0.117,0.4785,0.149,0.1801
18:19:21:321,0.816,5.3351,9.461,38.8969,0.1298,0.2155,0.2577,0.1844
18:19:21:341,1.328,5.072,8.487,38.6065,-0.0012,0.2229,0.2449,0.188
18:19:21:361,1.275,5.07,9.1691,38.8817,-0.2014,0.5126,0.2258,0.1907
18:19:21:384,1.5191,4.9451,11.1161,39.7592,-0.2261,0.6639,0.2013,0.1924
18:19:21:402,1.6541,4.62,12.236,39.7645,0.003,0.6596,0.1097,0.1932
18:19:21:421,1.397,4.464,11.4701,38.9627,0.3311,0.7033,0.0234,0.1942
18:19:21:441,0.713,4.641,10.2251,39.5837,0.3301,0.7769,-0.0192,0.1965
18:19:21:461,-0.615,4.857,10.587,38.8029,0.0798,0.7673,0.0265,0.2002
18:19:21:481,-1.455,4.893,11.8001,38.7886,-0.0385,0.5968,0.2109,0.2045
18:19:21:500,-1.1921,4.469,11.8031,39.4467,0.1138,0.3411,0.3664,0.2082
18:19:21:521,-0.699,4.1531,10.062,39.4466,0.2586,0.1953,0.4388,0.2111
18:19:21:541,-0.366,3.842,8.5301,39.4265,0.2182,0.2314,0.5112,0.2138
18:19:21:561,0.021,3.537,7.881,38.6753,0.0104,0.2846,0.5507,0.2162
18:19:21:581,0.1481,3.626,7.979,38.9817,-0.1471,0.3028,0.5453,0.2181
18:19:21:601,-0.038,3.566,8.027,39.2894,-0.1578,0.2932,0.5496,0.2188
18:19:21:621,-0.1751,3.638,7.6901,38.5591,-0.1056,0.2485,0.5496,0.2186
18:19:21:641,-0.395,3.9521,7.347,38.5528,-0.0694,0.1962,0.5561,0.218
18:19:21:660,-0.357,4.308,6.9401,38.8869,-0.0619,0.1462,0.6135,0.2175
18:19:21:681,-0.132,4.287,6.804,39.5719,-0.0417,0.1228,0.6667,0.2171
18:19:21:700,0.533,4.1291,6.828,39.2136,0.0201,0.2112,0.6359,0.2166
18:19:21:721,0.6911,3.954,7.5701,39.927,0.1863,0.4487,0.5314,0.2162
18:19:21:740,0.593,4.1291,7.929,39.2771,0.443,0.5361,0.4069,0.2167
18:19:21:760,0.531,4.38,7.1321,39.2649,0.5133,0.3602,0.2662,0.2187
18:19:21:781,0.531,4.4141,6.054,39.2452,0.2747,0.2815,0.0799,0.2223
18:19:21:801,-0.1361,4.9571,6.66,39.2452,0.0542,0.2943,0.0032,0.2264
18:19:21:820,-0.0881,5.067,7.6661,39.233,-0.0726,0.4733,0.0714,0.2301
18:19:21:841,0.014,5.189,9.3611,38.5703,-0.0087,0.3284,0.1405,0.2329
18:19:21:860,0.1361,5.079,9.083,38.5583,0.0936,0.0546,0.1629,0.2352
18:19:21:880,0.059,5.031,8.5751,39.345,0.0648,0.0386,0.1811,0.2365
18:19:21:902,0.047,4.653,8.717,39.345,-0.1312,0.1174,0.2247,0.2376
18:19:21:919,0.6431,4.433,10.467,39.6913,-0.2856,0.1504,0.1831,0.2381
18:19:21:940,1.1891,4.6241,11.9471,38.9386,-0.1792,-0.0913,0.033,0.2373
18:19:21:960,1.601,4.814,11.0561,39.5964,-0.0066,-0.4781,-0.1173,0.2356
18:19:21:979,1.5581,4.955,9.698,39.5964,-0.0194,-0.5217,-0.2515,0.2336
18:19:21:999,0.6821,4.9691,9.983,38.8809,0.0243,-0.2437,-0.2398,0.2314
18:19:22:020,0.5141,4.799,10.115,39.5964,0.3013,0.0514,-0.1012,0.2294
18:19:22:040,0.543,4.548,8.793,40.0025,0.4707,0.2826,0.018,0.2287
18:19:22:060,0.191,4.3901,7.6661,40.0025,0.2779,0.4562,0.165,0.2299
18:19:22:079,0.4541,4.3061,7.7471,39.3284,-0.1226,0.5808,0.3376,0.2324
18:19:22:101,1.182,4.143,8.444,39.6955,-0.5627,0.4136,0.2556,0.2346
18:19:22:121,0.744,3.312,9.21,40.0722,-0.9046,-0.1276,0.0586,0.2349
18:19:22:140,0.437,3.171,9.047,39.291,-1.0867,-0.7721,-0.0331,0.232
18:19:22:160,0.6461,3.008,8.482,40.3371,-1.1048,-1.1033,-0.017,0.2253
18:19:22:181,1.35,2.3,7.6751,40.0241,-1.0451,-1.1172,-0.0619,0.2153
18:19:22:201,1.73,2.168,7.656,40.0471,-0.9003,-0.8892,-0.2526,0.2034
18:19:22:219,1.275,2.534,7.989,40.1001,-0.6457,-0.6176,-0.4155,0.191
18:19:22:240,0.033,3.071,8.444,40.1001,-0.3134,-0.3587,-0.3911,0.1796
18:19:22:259,-0.591,3.717,8.609,40.068,0.0712,-0.019,-0.1236,0.1705
18:19:22:280,-0.7061,4.158,8.427,40.3128,0.4942,0.4583,0.2449,0.1649
18:19:22:300,-0.074,4.074,7.8521,40.0273,0.7711,0.9046,0.5752,0.1635
18:19:22:319,0.416,3.549,7.4981,40.0451,0.7785,1.2082,0.6913,0.1665
18:19:22:339,1.007,3.344,8.0681,39.3683,0.5613,1.2753,0.67,0.1731
18:19:22:359,1.7801,4.026,9.102,40.0685,0.3939,0.9335,0.5038,0.1811
18:19:22:379,1.974,4.263,9.6911,39.9921,0.2375,0.3007,0.2641,0.1887
18:19:22:400,1.8,4.3541,9.272,39.9921,-0.0098,-0.3076,0.0032,0.1948
18:19:22:418,1.196,4.385,8.738,40.4067,-0.4199,-0.4707,-0.1918,0.1984
18:19:22:438,0.3821,3.648,9.567,39.7161,-0.8097,-0.3726,-0.2845,0.1989
18:19:22:458,0.401,2.9441,11.087,40.3751,-1.0207,-0.282,-0.3282,0.1959
18:19:22:479,0.567,3.2261,11.999,40.3435,-0.9695,-0.2809,-0.4241,0.1898
18:19:22:500,-0.2081,3.717,11.6021,40.1395,-0.7617,-0.2725,-0.4474,0.1818
18:19:22:519,-1.005,2.687,10.742,40.1297,-0.6989,-0.1074,-0.2526,0.1733
18:19:22:539,-0.977,2.6081,11.1761,40.7762,-0.8225,0.0694,0.0319,0.1655
18:19:22:558,0.164,1.847,11.3021,39.9307,-0.879,0.0279,0.1075,0.158
18:19:22:579,0.1811,1.5311,11.3141,41.2092,-0.7213,-0.0307,-0.0949,0.1504
18:19:22:599,-0.912,2.127,10.338,40.5839,-0.4572,-0.1478,-0.1588,0.1428
18:19:22:618,-1.4081,2.8121,9.014,40.5716,-0.3868,-0.1244,0.1459,0.1362
18:19:22:638,-0.6491,2.501,8.18,41.0415,-0.5775,-0.021,0.4623,0.1306
18:19:22:658,0.2411,1.7351,8.267,40.9319,-0.7543,0.0429,0.4793,0.1256
18:19:22:678,0.849,1.466,8.702,41.3696,-0.7534,0.0258,0.263,0.1198
18:19:22:698,0.387,2.175,8.786,41.4179,-0.5732,-0.1202,0.0905,0.1131
18:19:22:718,0.1931,1.895,8.736,41.4086,-0.3273,-0.3417,0.0958,0.1064
18:19:22:738,0.555,2.024,8.3261,41.3754,-0.1258,-0.4418,0.1385,0.1006
18:19:22:758,1.139,2.283,7.697,41.9051,0.019,-0.3971,0.1203,0.0959
18:19:22:778,1.127,2.376,7.644,41.3966,0.1458,-0.1734,0.0393,0.0925
18:19:22:798,0.1241,2.544,8.075,41.5336,0.3376,0.2047,-0.0267,0.0906
18:19:22:818,-0.728,2.664,9.162,41.4169,0.5644,0.3752,0.0254,0.0909
18:19:22:838,-0.5771,3.4511,8.9801,42.0228,0.7338,0.2846,0.1394,0.0936
18:19:22:858,-0.06,4.04,8.8991,41.9905,0.7487,0.2496,0.2439,0.0986
18:19:22:878,-0.0191,3.7241,9.1571,41.9744,0.6795,0.2346,0.3079,0.1051
18:19:22:898,0.519,3.746,9.864,41.9863,0.6124,0.2069,0.3259,0.1123
18:19:22:918,0.3371,3.722,10.608,41.9652,0.6443,0.176,0.3036,0.1194
18:19:22:938,0.3371,3.6911,10.481,41.9436,0.5932,0.0236,0.3196,0.1265
18:19:22:958,0.231,3.693,9.9761,41.9817,0.378,0.0524,0.3398,0.1334
18:19:22:978,0.777,3.236,11.9351,41.9817,0.2278,0.0716,0.3802,0.1394
18:19:22:998,1.235,3.4271,12.344,41.9817,0.3759,-0.0029,0.3025,0.1438
18:19:23:018,1.649,3.32,12.593,41.9709,0.7029,0.1163,0.2045,0.147
18:19:23:038,1.649,3.329,12.191,41.9604,0.9181,0.06,0.0223,0.1507
18:19:23:058,1.215,3.317,11.6261,42.1767,0.9362,-0.1617,-0.0895,0.156
18:19:23:102,0.78,3.171,10.5101,41.7168,0.8564,-0.3534,-0.0587,0.1623
18:19:23:103,0.705,3.327,8.6501,42.3943,0.6582,-0.2032,0.0766,0.1691
18:19:23:118,0.696,3.4301,8.13,42.4025,0.2375,0.1259,0.2769,0.1753
18:19:23:137,1.017,2.7881,9.215,42.8465,-0.2707,0.2123,0.4399,0.1801
18:19:23:157,1.448,1.991,10.431,43.3342,-0.536,0.0216,0.4005,0.1825
18:19:23:177,1.8281,1.577,10.661,43.3122,-0.4859,-0.1873,0.2183,0.1817
18:19:23:197,1.766,1.6151,10.002,42.6147,-0.2537,-0.2703,-0.0022,0.1786
18:19:23:217,1.112,2.046,8.8361,42.5933,0.0808,-0.282,-0.1727,0.1746
18:19:23:237,0.746,2.7041,7.4411,43.2039,0.3481,-0.1244,-0.2003,0.1714
18:19:23:257,0.914,3.123,6.725,42.7581,0.4015,0.143,-0.1407,0.17
18:19:23:277,0.854,3.2261,7.0931,43.2788,0.3887,0.3422,-0.0949,0.1709
18:19:23:297,0.773,3.1691,7.512,42.8243,0.4399,0.3167,-0.0884,0.1736
18:19:23:317,1.0549,3.3221,7.6271,42.8141,0.507,0.2005,-0.1151,0.1771
18:19:23:337,1.254,3.7121,7.1561,43.1002,0.5463,0.1302,-0.1748,0.1812
18:19:23:357,0.887,4.067,6.7751,43.1002,0.5144,0.2538,-0.2206,0.1859
18:19:23:377,0.4061,4.5649,7.3541,43.8245,0.4493,0.4019,-0.1854,0.191
18:19:23:397,0.227,4.62,8.238,43.8245,0.4206,0.3923,-0.1023,0.1964
18:19:23:417,0.4301,4.617,8.9111,42.8389,0.4313,0.2644,-0.0576,0.202
18:19:23:437,0.495,4.586,8.951,43.3744,0.4718,0.143,-0.0587,0.2077
18:19:23:457,0.258,4.6841,8.3479,44.1554,0.4206,0.1132,-0.0576,0.2129
18:19:23:477,-0.1271,4.9931,8.123,43.575,0.1522,0.2166,0.0021,0.2178
18:19:23:497,0.131,5.1371,9.167,43.575,-0.1706,0.3389,0.1055,0.2223
18:19:23:517,0.416,5.027,10.692,43.5622,-0.1929,0.3699,0.0873,0.2253
18:19:23:537,-0.474,4.857,10.994,43.5622,0.0286,0.3315,0.0095,0.2265
18:19:23:557,-1.1711,4.8491,10.2131,44.3723,0.165,0.2431,0.0927,0.2271
18:19:23:577,-0.78,4.3661,9.66,43.827,-0.0279,0.1825,0.2534,0.2281
18:19:23:597,0.021,3.722,9.962,44.2748,-0.2558,0.0674,0.2375,0.2292
18:19:23:617,0.1361,3.444,10.1171,44.2522,-0.2431,0.0184,0.0543,0.229
18:19:23:637,-0.476,3.6521,9.789,44.2522,-0.095,0.0961,-0.065,0.2276
18:19:23:657,-1.056,3.9491,9.038,44.2522,0.0084,0.1536,-0.0246,0.2259
18:19:23:677,-1.0721,4.16,7.998,44.2522,-0.1078,0.078,0.0979,0.2249
18:19:23:697,-0.474,3.9881,7.421,44.6882,-0.3932,-0.0466,0.1959,0.2243
18:19:23:717,0.1121,3.6431,7.9241,44.6882,-0.5849,-0.0967,0.2194,0.2231
18:19:23:737,0.5141,3.075,8.963,43.9001,-0.4433,-0.1478,0.1555,0.2202
18:19:23:757,0.612,2.891,9.191,44.3575,-0.0874,-0.3769,-0.0352,0.2159
18:19:23:777,0.4061,3.446,8.192,43.8901,0.1363,-0.7763,-0.1779,0.2118
18:19:23:797,0.3221,4.062,6.4691,45.0255,0.0914,-1.0214,-0.1449,0.2086
18:19:23:817,0.662,3.813,5.5541,44.4041,-0.0342,-0.8712,-0.0832,0.2062
18:19:23:837,1.3541,3.794,6.083,44.9228,-0.0459,-0.4557,-0.1801,0.204
18:19:23:857,0.957,4.313,6.914,44.1967,0.117,-0.0136,-0.309,0.2018
18:19:23:877,0.1241,4.718,7.5461,44.5103,0.3279,0.2516,-0.3004,0.2007
18:19:23:897,-0.117,4.8851,7.9271,45.3,0.428,0.2527,-0.2483,0.2017
18:19:23:917,-0.048,5.163,8.099,45.2771,0.3802,0.0759,-0.2419,0.2046
18:19:23:936,-0.033,5.685,8.0561,45.2644,0.2395,-0.1148,-0.195,0.2085
18:19:23:956,-0.086,5.85,8.147,44.8597,0.0562,-0.1126,-0.081,0.2124
18:19:23:976,0.073,5.549,9.038,45.4361,-0.0459,0.0802,0.0617,0.2153
18:19:23:996,0.5951,4.9601,10.005,45.2771,0.0223,0.2761,0.1374,0.2164
18:19:24:017,0.8441,4.77,10.6151,45.2771,0.1554,0.4392,0.1055,0.218
18:19:24:037,1.122,5.058,10.9391,45.6648,0.2757,0.2985,-0.0139,0.2195
18:19:24:056,1.251,5.436,9.6581,45.1468,0.2065,0.0056,-0.1642,0.2215
18:19:24:076,1.218,5.199,9.227,45.1371,0.0158,0.0088,-0.3154,0.2236
18:19:24:097,0.399,4.665,10.5671,45.2843,0.069,0.0151,-0.4113,0.2253
18:19:24:117,0.114,4.8161,10.055,45.2843,0.3524,-0.2885,-0.3718,0.2263
18:19:24:136,-0.4331,5.2181,6.761,45.4929,0.4217,-0.5483,-0.2194,0.2274
18:19:24:157,-1.1081,5.261,2.762,45.4693,0.1937,-0.0722,0.165,0.2293
18:19:24:176,-0.735,4.4021,2.99,45.2929,-0.4177,1.0293,0.5677,0.2315
18:19:24:197,-0.4121,3.071,7.862,46.0183,-0.9536,1.4074,0.7041,0.2331
18:19:24:216,0.179,2.142,10.632,45.9271,-1.1357,0.7193,0.5731,0.2331
18:19:24:237,0.6461,2.477,10.0121,45.0104,-0.864,0.2496,0.327,0.23
18:19:24:256,0.413,3.099,7.742,44.9845,-0.3037,0.4562,0.165,0.2242
18:19:24:276,-0.371,3.858,5.204,45.3328,0.3237,1.2221,0.164,0.2187
18:19:24:297,-1.343,3.935,3.2411,45.3555,0.6049,2.0467,0.2567,0.2169
18:19:24:316,-1.3931,3.233,3.6941,44.8937,0.036,1.9294,0.261,0.2205
18:19:24:336,-1.221,2.7161,5.1251,45.3754,-0.488,1.3042,0.1607,0.2268
18:19:24:356,-1.044,2.525,5.142,44.9624,-0.4188,1.1081,0.0543,0.2313
18:19:24:375,-2.08,2.994,4.017,45.5479,0.1479,1.7355,0.116,0.2332
18:19:24:396,-2.9111,3.15,2.6471,45.947,0.5164,2.5942,0.3355,0.2353
18:19:24:417,-3.5051,2.348,3.042,45.2525,-0.0364,2.8051,0.4356,0.2408
18:19:24:436,-3.234,1.337,5.2691,45.3089,-0.7298,2.493,0.3696,0.2481
18:19:24:457,-3.072,0.707,6.4811,45.4444,-0.9109,2.1776,0.1022,0.2534
18:19:24:476,-4.7141,0.209,6.0971,45.1721,-0.8353,2.4674,-0.1651,0.2553
18:19:24:497,-6.407,0.135,7.716,45.5116,-0.7363,2.9362,-0.2365,0.2551
18:19:24:516,-6.536,-0.441,8.276,45.3939,-0.3847,3.3345,-0.2771,0.254
18:19:24:537,-6.033,-1.0631,7.4771,45.3362,-0.1301,3.6062,-0.5594,0.2536
18:19:24:556,-7.154,-1.4561,6.411,46.0258,-0.0066,3.9897,-1.0418,0.2549
18:19:24:575,-9.426,-1.671,6.279,45.2709,-0.2728,4.1942,-1.4275,0.2575
18:19:24:595,-10.1801,-1.758,7.287,45.416,-0.4412,4.2272,-1.6416,0.2601
18:19:24:616,-10.0001,-1.674,7.601,46.5914,-0.3783,4.0398,-1.8664,0.2611
18:19:24:636,-10.5371,-1.4921,6.605,45.6499,-0.3677,3.5784,-2.0325,0.2602
18:19:24:656,-10.779,-1.896,5.2451,45.6185,-0.6095,2.9979,-2.1721,0.2574
18:19:24:676,-11.49,-2.543,4.335,46.9258,-0.9504,2.4695,-2.4171,0.252
18:19:24:695,-12.318,-2.6981,3.4541,45.6076,-1.1602,2.2639,-2.5003,0.2427
18:19:24:717,-12.5,-3.273,3.284,46.2526,-1.1582,2.4738,-2.4694,0.2295
18:19:24:735,-12.548,-3.7811,3.114,46.6738,-1.1624,2.6144,-2.4299,0.2134
18:19:24:757,-12.045,-4.37,2.6861,45.9591,-1.4191,2.4621,-2.4171,0.1957
18:19:24:776,-11.583,-4.1471,3.045,46.5408,-1.8963,2.0658,-2.4034,0.1766
18:19:24:796,-10.4411,-3.872,4.067,46.0603,-2.3906,1.4117,-2.3724,0.1571
18:19:24:815,-9.249,-3.642,5.078,46.4693,-2.641,0.7235,-2.4214,0.1377
18:19:24:837,-8.8391,-3.2711,5.573,46.8182,-2.5301,0.2155,-2.5354,0.1164
18:19:24:856,-8.897,-2.435,5.154,46.7383,-2.0987,0.0045,-2.5939,0.0916
18:19:24:876,-9.474,-2.105,3.981,46.819,-1.4521,0.2368,-2.5897,0.0641
18:19:24:897,-10.802,-2.232,2.99,46.3354,-0.7523,0.7758,-2.545,0.0365
18:19:24:916,-12.572,-2.256,2.157,47.0131,-0.0758,1.2722,-2.4001,0.0113
18:19:24:937,-13.4771,-2.0501,1.01,46.9482,0.3706,1.6536,-2.1242,-0.0095
18:19:24:955,-13.503,-1.916,0.5141,46.9062,0.2822,1.7036,-1.8525,-0.025
18:19:24:975,-14.097,-2.651,0.914,47.331,-0.1035,1.2497,-1.6363,-0.036
18:19:24:995,-14.942,-3.41,1.616,48.2256,-0.4817,0.6138,-1.4264,-0.0448
18:19:25:015,-15.897,-3.6011,1.8,48.0496,-0.8001,-0.0839,-1.1302,-0.054
18:19:25:036,-15.3371,-3.615,1.994,47.9437,-1.1336,-0.6709,-0.6722,-0.0646
18:19:25:056,-13.743,-3.8,2.7431,47.6581,-1.2572,-1.0682,-0.3079,-0.0764
18:19:25:076,-12.713,-4.511,2.6381,47.5556,-1.125,-1.2376,-0.1088,-0.0891
18:19:25:102,-12.462,-5.351,2.544,48.3058,-0.8598,-1.1257,-0.0054,-0.1016
18:19:25:116,-11.468,-4.688,2.7791,48.081,-0.4444,-0.9105,0.0148,-0.1131
18:19:25:136,-12.0551,-3.7811,2.382,47.4199,0.1202,-0.4918,0.1012,-0.1226
18:19:25:155,-13.1891,-4.619,2.013,47.4762,0.6252,0.0353,0.4762,-0.1292
18:19:25:175,-13.838,-6.441,1.6181,48.1613,0.9756,0.3912,0.9214,-0.1312
18:19:25:195,-13.0751,-8.682,1.017,47.4705,1.0395,0.487,1.2441,-0.1276
18:19:25:216,-10.922,-9.3281,0.938,47.3802,0.884,0.3113,1.2676,-0.1187
18:19:25:236,-8.7551,-8.5331,1.355,46.8798,0.7646,0.0481,1.0706,-0.1065
18:19:25:255,-7.448,-6.651,1.4861,47.2002,0.8297,-0.1882,0.8213,-0.0936
18:19:25:278,-7.022,-5.0231,0.8231,47.2281,0.9874,-0.2533,0.7243,-0.0815
18:19:25:296,-6.459,-4.037,0.066,47.2049,1.096,-0.2192,0.7466,-0.0702
18:19:25:317,-6.036,-3.5561,-0.624,46.9353,1.1014,-0.0989,0.7787,-0.0592
18:19:25:339,-5.696,-3.2681,-0.7391,46.2416,1.0161,0.0322,0.8202,-0.0479
18:19:25:356,-5.528,-3.11,-0.356,46.7929,0.9192,0.1068,0.8702,-0.0362
18:19:25:377,-5.454,-3.2111,0.014,46.6083,0.8638,0.0578,0.9438,-0.0243
18:19:25:397,-5.0201,-3.879,-0.3281,47.2798,0.8063,-0.0861,1.0172,-0.0123
18:19:25:418,-4.58,-4.848,-0.78,47.2528,0.7136,-0.1191,0.9448,-0.0002
18:19:25:439,-4.92,-5.471,-1.031,46.5191,0.6262,0.0162,0.7477,0.0115
18:19:25:457,-6.0791,-5.61,-0.744,47.2345,0.575,0.2485,0.5805,0.0224
18:19:25:475,-7.34,-5.7341,-0.378,47.4433,0.573,0.3602,0.6072,0.0324
18:19:25:502,-7.2371,-6.836,-1.077,46.7294,0.4601,0.2974,0.7147,0.0417
18:19:25:517,-7.0241,-8.416,-1.376,46.94,0.1852,0.2889,0.5933,0.0507
18:19:25:535,-7.139,-9.57,-0.96,46.94,-0.0428,0.3432,0.263,0.0588
18:19:25:557,-7.515,-9.2921,0.117,46.9154,-0.1386,0.3454,-0.1631,0.065
18:19:25:575,-7.7471,-7.64,0.356,46.9153,-0.0758,0.1334,-0.4773,0.0685
18:19:25:596,-8.186,-6.833,-0.972,47.6139,-0.1121,-0.0637,-0.6446,0.0693
18:19:25:616,-8.9801,-6.788,-2.226,46.7,-0.389,-0.1756,-0.749,0.0675
18:19:25:636,-9.273,-6.563,-2.7941,46.6782,-0.8939,-0.2149,-0.7883,0.0634
18:19:25:656,-9.17,-5.706,-1.7261,46.9157,-1.4948,-0.2852,-0.7958,0.0565
18:19:25:676,-9.177,-5.7461,0.383,46.9983,-1.9304,-0.4216,-0.7032,0.0463
18:19:25:696,-8.7701,-6.6611,2.808,47.1153,-1.924,-0.6058,-0.6733,0.0319
18:19:25:717,-8.36,-7.259,3.9521,46.1626,-1.3254,-0.5782,-0.8726,0.0146
18:19:25:738,-9.134,-6.453,3.035,46.3107,-0.4795,-0.2522,-1.1441,-0.0031
18:19:25:756,-10.199,-5.22,1.383,46.6042,0.0169,0.0727,-1.1601,-0.0192
18:19:25:777,-10.2761,-4.0751,0.474,46.5692,0.0254,0.1387,-0.9653,-0.0324
18:19:25:796,-9.1309,-3.093,0.462,46.5104,-0.2548,-0.1265,-0.7319,-0.0428
18:19:25:816,-7.9751,-2.1191,0.842,46.1163,-0.536,-0.5441,-0.6157,-0.0513
18:19:25:836,-7.4651,-1.322,0.902,46.1027,-0.6744,-0.8221,-0.4965,-0.0595
18:19:25:857,-7.0241,-1.0271,0.983,45.759,-0.6744,-0.8349,-0.3239,-0.0683
18:19:25:876,-6.5651,-1.331,1.163,45.7321,-0.5562,-0.6623,-0.1599,-0.0774
18:19:25:896,-6.0881,-2.078,1.395,45.7094,-0.3187,-0.3812,-0.0927,-0.0857
18:19:25:916,-6.402,-2.622,1.139,46.017,-0.0246,-0.0733,-0.1481,-0.0925
18:19:25:936,-7.0031,-2.988,0.615,46.0455,0.1341,0.1686,-0.1737,-0.0973
18:19:25:957,-7.568,-3.45,0.4301,46.0455,0.1116,0.274,-0.1929,-0.1002
18:19:25:977,-8.21,-4.142,0.84,46.0229,0.0595,0.3178,-0.228,-0.1016
18:19:25:997,-8.748,-4.6211,1.256,46.0229,0.0712,0.29,-0.2782,-0.1024
18:19:26:015,-8.937,-5.5811,0.878,45.2632,0.1915,0.3858,-0.3729,-0.1028
18:19:26:035,-9.7871,-6.6821,-0.1841,45.2632,0.3726,0.8375,-0.5881,-0.1031
18:19:26:054,-11.6,-6.9671,0.1841,45.6494,0.4749,1.2838,-0.6489,-0.1028
18:19:26:075,-11.9711,-6.3641,1.223,45.3016,0.4984,1.1635,-0.4784,-0.1017
18:19:26:095,-11.25,-5.538,1.4261,45.6383,0.4441,0.5958,-0.3249,-0.0994
18:19:26:115,-10.881,-5.7821,0.485,44.8906,0.2662,-0.036,-0.1896,-0.0966
18:19:26:135,-10.125,-6.089,-0.062,45.3205,0.0468,-0.4195,-0.1418,-0.0943
18:19:26:156,-9.842,-5.3081,0.1571,44.5487,0.0371,-0.3864,-0.1694,-0.0934
18:19:26:175,-10.5491,-4.628,0.816,44.5487,0.2629,-0.0498,-0.0491,-0.094
18:19:26:196,-11.418,-5.4971,0.983,44.4992,0.5783,0.3858,0.3088,-0.0946
18:19:26:217,-11.4821,-7.518,0.95,44.1966,0.7487,0.6639,0.6412,-0.0931
18:19:26:237,-11.348,-9.455,0.888,44.7281,0.7008,0.682,0.7957,-0.0881
18:19:26:255,-10.2971,-10.3001,1.587,43.946,0.5005,0.4082,0.7477,-0.0799
18:19:26:275,-8.8871,-8.837,2.166,43.9849,0.3429,-0.0679,0.5433,-0.0705
18:19:26:295,-7.611,-6.948,2.58,43.7755,0.3939,-0.363,0.4133,-0.0619
18:19:26:315,-6.7541,-5.2001,2.5061,43.0348,0.7051,-0.4184,0.3281,-0.055
18:19:26:335,-6.44,-3.824,1.5581,43.604,1.0725,-0.3065,0.3333,-0.0493
18:19:26:356,-6.251,-2.777,0.3371,43.5566,1.2068,-0.1808,0.4356,-0.0432
18:19:26:376,-5.796,-2.397,-0.548,43.4989,1.0906,-0.1009,0.6082,-0.0356
18:19:26:396,-5.159,-2.54,-0.584,43.6219,0.8627,-0.0264,0.7424,-0.0266
18:19:26:416,-4.743,-2.9831,-0.126,43.6478,0.6859,0.0003,0.8031,-0.0169
18:19:26:437,-4.611,-3.5411,0.225,42.9155,0.606,-0.0168,0.7935,-0.0069
18:19:26:457,-4.704,-4.2791,0.081,42.9168,0.5283,-0.0637,0.7381,0.0028
18:19:26:476,-4.982,-5.033,-0.071,43.0178,0.4025,-0.0509,0.638,0.012
18:19:26:495,-5.5901,-5.7941,0.2321,43.0032,0.3205,0.095,0.5017,0.0204
18:19:26:515,-6.495,-6.407,0.701,42.9591,0.3546,0.2751,0.3824,0.0278
18:19:26:535,-7.491,-7.523,0.677,43.8063,0.4206,0.419,0.2982,0.0344
18:19:26:557,-8.243,-8.706,0.4091,43.1917,0.3865,0.4316,0.18,0.0405
18:19:26:575,-8.4371,-9.2921,0.0071,42.5713,0.2065,0.307,-0.0054,0.0462
18:19:26:595,-8.289,-8.832,0.083,42.5713,-0.0854,0.1143,-0.2739,0.0509
18:19:26:615,-8.7821,-7.425,0.4301,42.4432,-0.3006,-0.1169,-0.4784,0.0534
18:19:26:635,-9.7781,-7.121,-0.0641,43.0671,-0.4476,-0.2885,-0.472,0.0527
18:19:26:656,-10.142,-7.7291,-0.96,42.9616,-0.7278,-0.3704,-0.3846,0.0493
18:19:26:675,-9.0431,-7.034,-0.3131,42.2099,-1.1048,-0.4141,-0.3857,0.0439
18:19:26:694,-8.3411,-5.5811,0.9671,42.1287,-1.3307,-0.5026,-0.4507,0.0366
18:19:26:715,-8.6021,-5.346,2.4491,42.1474,-1.2838,-0.527,-0.3835,0.0268
18:19:26:735,-8.9951,-6.462,3.0161,42.0652,-0.8044,-0.4503,-0.3399,0.0153
18:19:26:755,-9.416,-7.166,1.769,42.0287,-0.1909,-0.1287,-0.4496,0.0041
18:19:26:774,-10.046,-6.347,0.399,41.3783,0.0393,0.1015,-0.5306,-0.0053
18:19:26:795,-10.02,-4.901,-0.186,42.0817,-0.1855,0.0014,-0.3783,-0.0124
18:19:26:815,-8.652,-4.142,0.2291,41.4891,-0.6628,-0.4238,-0.1449,-0.0177
18:19:26:834,-6.965,-3.6491,1.034,41.4641,-1.0025,-0.8573,-0.0554,-0.0228
18:19:26:856,-5.906,-3.137,1.716,40.9102,-1.009,-1.0011,-0.0991,-0.0292
18:19:26:877,-5.456,-2.4401,1.956,41.6926,-0.7341,-0.8371,-0.1481,-0.0372
18:19:26:895,-5.298,-2.148,1.817,41.1644,-0.3432,-0.4333,-0.1236,-0.0459
18:19:26:915,-5.052,-2.277,1.68,41.2331,-0.0055,-0.0412,-0.113,-0.0535
18:19:26:936,-5.4041,-2.763,1.611,40.496,0.1991,0.1493,-0.1651,-0.0588
18:19:26:955,-5.904,-3.297,1.422,41.15,0.3268,0.1323,-0.2535,-0.0617
18:19:26:974,-6.7991,-3.371,0.435,41.15,0.3674,0.0514,-0.3462,-0.0629
18:19:26:995,-7.446,-3.5891,-0.689,41.15,0.2012,0.0481,-0.3431,-0.0634
18:19:27:015,-7.788,-3.984,-0.5291,41.0233,-0.0407,0.1578,-0.3334,-0.0637
18:19:27:035,-8.5181,-4.92,0.524,41.15,-0.0641,0.3741,-0.3623,-0.0645
18:19:27:055,-9.2801,-6.1721,1.182,41.0233,0.0733,0.5074,-0.4187,-0.0657
18:19:27:074,-9.9881,-6.8261,0.998,41.0182,0.1756,0.4753,-0.5358,-0.0665
18:19:27:108,-10.7351,-6.6731,0.7031,41.1399,0.0755,0.3241,-0.6083,-0.067
18:19:27:114,-11.0921,-5.696,0.9641,41.2793,-0.1557,-0.0114,-0.5785,-0.0678
18:19:27:134,-11.516,-4.8941,1.077,40.887,-0.3751,-0.3758,-0.4198,-0.0697
18:19:27:155,-11.4581,-5.358,1.209,40.887,-0.5328,-0.591,-0.1631,-0.0731
18:19:27:175,-10.331,-5.492,1.601,40.8777,-0.5818,-0.6848,-0.0758,-0.0777
18:19:27:195,-10.314,-5.1911,2.109,41.0439,-0.406,-0.4674,-0.0864,-0.0833
18:19:27:215,-11.669,-6.048,2.36,41.041,-0.0109,0.0514,0.0373,-0.089
18:19:27:235,-12.9521,-7.6091,2.066,41.0317,0.3354,0.5776,0.2599,-0.0932
18:19:27:256,-13.134,-8.715,2.118,40.8407,0.3279,0.8312,0.4921,-0.094
18:19:27:275,-12.213,-8.7461,3.344,40.1104,0.132,0.649,0.6561,-0.0912
18:19:27:295,-10.767,-8.073,4.534,40.6794,0.1,0.1111,0.7499,-0.0861
18:19:27:318,-8.5091,-6.764,4.3211,40.4526,0.297,-0.4269,0.7765,-0.0802
18:19:27:337,-6.656,-5.373,3.117,39.8505,0.6134,-0.7178,0.6923,-0.0744
18:19:27:355,-5.6621,-4.283,1.455,40.3176,0.8905,-0.7028,0.6135,-0.0686
18:19:27:375,-4.946,-3.5681,0.0071,39.624,1.0428,-0.429,0.5666,-0.0624
18:19:27:395,-4.637,-3.287,-0.6821,39.5583,1.0651,0.0056,0.5209,-0.0554
18:19:27:415,-4.896,-3.2321,-0.548,40.2099,0.9959,0.3389,0.491,-0.0473
18:19:27:435,-5.1641,-3.41,0.0521,40.2123,0.8638,0.4179,0.5103,-0.038
18:19:27:455,-5.3291,-3.522,0.426,40.1859,0.7327,0.2996,0.5134,-0.0281
18:19:27:474,-5.784,-3.9221,0.471,40.8905,0.5857,0.1356,0.5273,-0.0182
18:19:27:495,-6.213,-4.568,0.462,40.8905,0.4738,0.0396,0.54,-0.0089
18:19:27:514,-6.519,-4.767,0.4691,40.8647,0.4356,0.0173,0.5145,-0.0005
18:19:27:538,-6.7541,-4.602,0.215,40.8037,0.3791,0.0344,0.524,0.007
18:19:27:556,-7.091,-5.2481,0.062,40.0607,0.2267,0.0578,0.5826,0.014
18:19:27:574,-7.52,-6.879,0.1361,40.7483,0.0201,0.0674,0.5859,0.0204
18:19:27:596,-7.9631,-8.964,0.447,40.726,-0.1684,0.1046,0.4836,0.0259
18:19:27:615,-7.257,-9.467,1.1321,41.3976,-0.2804,0.0642,0.1885,0.0301
18:19:27:634,-7.005,-8.145,1.4861,40.6795,-0.2548,-0.0029,-0.2185,0.0327
18:19:27:655,-8.097,-7.0391,0.7271,40.6795,-0.2005,-0.0648,-0.4667,0.033
18:19:27:674,-9.263,-7.326,-0.6821,40.6795,-0.3432,-0.0253,-0.4773,0.0312
18:19:27:694,-9.356,-7.817,-1.094,39.9824,-0.6915,0.0887,-0.4837,0.0277
18:19:27:715,-8.9711,-6.975,0.131,40.1048,-1.0942,0.0685,-0.619,0.0228
18:19:27:735,-9.3371,-5.694,1.881,40.2069,-1.3467,-0.1041,-0.6498,0.0158
18:19:27:759,-9.957,-5.9981,3.576,40.4053,-1.3083,-0.3343,-0.4806,0.0061
18:19:27:775,-9.921,-7.499,4.01,40.4203,-0.895,-0.4397,-0.3783,-0.0053
18:19:27:794,-9.4811,-7.796,2.858,39.8856,-0.3879,-0.3076,-0.505,-0.0167
18:19:27:814,-9.668,-6.656,1.91,39.8692,-0.0896,-0.0434,-0.6276,-0.0268
18:19:27:834,-9.536,-5.133,1.632,39.8528,0.0232,0.0247,-0.5614,-0.035
18:19:27:855,-8.456,-3.972,1.103,39.9709,-0.0236,-0.1532,-0.4272,-0.0414
18:19:27:874,-7.0631,-3.0791,0.665,39.4316,-0.194,-0.4099,-0.3601,-0.0462
18:19:27:895,-6.153,-2.2121,0.6,39.0938,-0.2921,-0.5367,-0.3623,-0.0506
18:19:27:915,-5.837,-1.635,0.4451,39.291,-0.2494,-0.4333,-0.3484,-0.0554
18:19:27:934,-5.916,-1.365,0.378,39.2935,-0.1451,-0.1467,-0.2908,-0.0603
18:19:27:954,-6.213,-1.307,0.591,39.2935,-0.0279,0.1973,-0.1854,-0.0648
18:19:27:977,-6.3971,-1.8101,1.01,39.2768,0.0542,0.4136,-0.1034,-0.0679
18:19:27:995,-6.8741,-2.4731,1.2641,39.7893,0.0605,0.4008,-0.0767,-0.0695
18:19:28:015,-7.676,-3.213,1.0511,39.7868,-0.0225,0.2729,-0.0054,-0.0698
18:19:28:035,-7.7381,-4.317,0.914,40.5276,-0.2335,0.143,0.0905,-0.0695
18:19:28:056,-7.4891,-5.109,1.3691,39.8949,-0.4284,0.0865,0.0606,-0.0692
18:19:28:075,-7.9631,-5.993,1.994,40.0433,-0.4774,0.1834,-0.0161,-0.0694
18:19:28:095,-8.5451,-7.0631,2.877,39.8722,-0.4177,0.2794,-0.1077,-0.0707
18:19:28:115,-8.997,-7.59,3.684,39.5702,-0.2654,0.2612,-0.2483,-0.0726
18:19:28:135,-9.2891,-7.1591,4.058,39.5847,-0.1035,0.0344,-0.4016,-0.0748
18:19:28:155,-10.032,-6.1991,3.801,39.5677,0.0584,-0.3098,-0.5008,-0.0773
18:19:28:175,-10.853,-5.543,2.5331,39.7646,0.1107,-0.6475,-0.4252,-0.0804
18:19:28:198,-10.448,-5.148,1.764,39.7572,0.0084,-0.8669,-0.2643,-0.0838
18:19:28:215,-9.941,-4.659,1.556,39.9684,0.0553,-0.7624,-0.1705,-0.0877
18:19:28:235,-10.5851,-5.4041,1.271,39.9684,0.2725,-0.3172,-0.0213,-0.0917
18:19:28:255,-11.5571,-7.2641,0.828,39.0189,0.4516,0.2761,0.1885,-0.0946
18:19:28:274,-12.014,-9.239,1.0151,39.5153,0.4313,0.765,0.3611,-0.0949
18:19:28:295,-11.322,-9.833,2.231,39.3431,0.2065,0.8557,0.425,-0.0921
18:19:28:315,-10.005,-9.3041,4.103,38.7142,0.0883,0.5754,0.3546,-0.0871
18:19:28:335,-8.741,-7.913,5.262,39.0692,0.3024,0.1015,0.1885,-0.0817
18:19:28:354,-7.68,-6.156,4.2229,38.3281,0.7689,-0.282,0.0265,-0.0768
18:19:28:376,-7.0871,-4.82,1.9121,38.127,1.1344,-0.3129,-0.0799,-0.0724
18:19:28:395,-6.603,-3.417,0.033,38.6964,1.2558,-0.0531,-0.1268,-0.0678
18:19:28:417,-6.33,-1.7501,-0.7421,38.5999,1.2111,0.3295,-0.0554,-0.0621
18:19:28:438,-6.2441,-0.455,-0.7301,38.4992,1.0363,0.5606,0.1757,-0.0553
18:19:28:455,-5.973,-0.371,-0.4931,38.4793,0.72,0.5233,0.5027,-0.047
18:19:28:475,-5.552,-1.334,0.0191,39.0639,0.2544,0.2698,0.7925,-0.0377
18:19:28:495,-5.43,-3.137,1.1441,39.0492,-0.0908,0.0322,0.9714,-0.0284
18:19:28:516,-5.5541,-5.315,2.121,38.9863,-0.1216,-0.0157,0.9811,-0.0202
18:19:28:535,-5.5571,-6.867,2.978,39.6411,0.1022,0.0418,0.8042,-0.0132
18:19:28:555,-5.88,-6.963,2.937,39.6275,0.4803,0.0844,0.5155,-0.0068
18:19:28:577,-6.7661,-6.8951,1.7501,38.961,0.7487,0.2005,0.375,-0.0005
18:19:28:595,-7.5101,-7.6091,0.708,39.6695,0.7572,0.3273,0.3546,0.006
18:19:28:615,-7.6901,-8.957,0.3971,38.8936,0.6241,0.4232,0.3068,0.0132
18:19:28:637,-7.5701,-9.735,0.44,38.8663,0.507,0.487,0.066,0.0205
18:19:28:656,-7.656,-9.2111,0.438,38.8417,0.3876,0.4935,-0.2569,0.0273
18:19:28:675,-8.363,-7.769,0.675,39.5505,0.2907,0.4147,-0.4869,0.0326
18:19:28:695,-9.584,-7.08,0.071,38.8306,0.1596,0.2761,-0.4624,0.036
18:19:28:715,-10.103,-7.748,-0.8711,38.831,-0.2261,0.1239,-0.2674,0.0375
18:19:28:735,-8.645,-8.322,-0.222,38.8485,-0.8034,-0.0861,-0.2206,0.0376
18:19:28:755,-7.271,-6.8981,1.6391,38.8507,-1.1272,-0.3406,-0.4294,0.0355
18:19:28:774,-7.424,-5.6771,2.813,38.9359,-1.0824,-0.4918,-0.5412,0.0301
18:19:28:795,-7.8821,-6.105,3.078,38.9705,-0.7671,-0.5142,-0.4954,0.0216
18:19:28:815,-7.958,-7.113,2.106,38.8526,-0.3197,-0.2522,-0.5657,0.0117
18:19:28:835,-8.775,-7.458,0.9041,38.3012,-0.0225,0.1845,-0.7308,0.0023
18:19:28:858,-9.608,-6.668,0.4931,38.2853,-0.0598,0.4477,-0.7756,-0.0056
18:19:28:876,-9.368,-5.49,0.969,38.368,-0.3677,0.3475,-0.6211,-0.0118
18:19:28:895,-7.97,-4.695,2.102,38.5381,-0.7287,-0.0296,-0.4752,-0.0172
18:19:28:915,-6.833,-3.7181,3.564,38.1447,-0.7363,-0.3363,-0.4678,-0.0229
18:19:28:934,-6.7301,-2.426,4.046,38.8154,-0.2622,-0.4482,-0.49,-0.0298
18:19:28:956,-6.7901,-1.2671,2.195,38.8154,0.2342,-0.4536,-0.3538,-0.0372
18:19:28:975,-6.167,-1.178,0.392,38.8041,0.3598,-0.3439,-0.1481,-0.0431
18:19:28:996,-5.408,-1.5971,-0.251,38.958,0.2896,-0.2479,-0.1108,-0.0467
18:19:29:015,-5.504,-1.968,-0.4091,38.2525,0.2534,-0.1404,-0.2089,-0.0484
18:19:29:035,-6.141,-2.303,-0.885,38.2525,0.2491,0.045,-0.2919,-0.0493
18:19:29:055,-7.271,-3,-1.1921,38.25,0.1213,0.3454,-0.3036,-0.0499
18:19:29:077,-8.262,-3.7571,-0.143,38.25,-0.1291,0.5467,-0.276,-0.0502
18:19:29:095,-9.452,-4.0631,1.608,38.974,-0.3432,0.5074,-0.2674,-0.0504
18:19:29:120,-10.91,-5.258,3.105,38.9765,-0.3569,0.3369,-0.1182,-0.0507
18:19:29:136,-11.157,-6.405,4.431,38.234,-0.1631,0.0481,0.0373,-0.0515
18:19:29:156,-10.824,-6.963,3.593,38.234,0.1224,-0.1585,0.116,-0.0523
18:19:29:174,-10.3451,-7.317,3.002,38.8162,0.1713,-0.2373,0.1299,-0.0526
18:19:29:196,-10.163,-6.819,2.573,39.0206,0.132,-0.4823,0.0723,-0.0522
18:19:29:216,-10.4,-6.5051,1.8191,38.4254,0.0499,-0.6197,0.0808,-0.0518
18:19:29:235,-9.972,-6.386,1.505,39.0019,-0.0257,-0.6645,0.1129,-0.0521
18:19:29:255,-9.146,-5.481,1.395,38.6456,-0.0268,-0.5505,0.034,-0.0531
18:19:29:276,-9.902,-4.949,1.158,39.1438,0.052,-0.1904,0.0703,-0.0546
18:19:29:296,-10.802,-6.462,1.352,38.4131,0.1277,0.3454,0.3503,-0.0557
18:19:29:315,-10.9031,-8.43,1.9481,38.25,0.15,0.7107,0.54,-0.055
18:19:29:334,-10.467,-9.527,2.789,38.8064,0.0542,0.7332,0.5826,-0.0519
18:19:29:356,-9.3611,-9.225,3.675,39.2674,-0.0566,0.3582,0.4825,-0.0471
18:19:29:375,-8.14,-7.829,4.175,39.2946,-0.0236,-0.1063,0.329,-0.0421
18:19:29:396,-7.221,-6.026,3.612,38.5829,0.2193,-0.4599,0.2067,-0.0382
18:19:29:415,-6.5981,-4.599,2.0419,38.4729,0.459,-0.5131,0.1768,-0.0355
18:19:29:435,-6.131,-3.632,1.0721,38.5587,0.6091,-0.3108,0.1981,-0.0334
18:19:29:456,-5.856,-3.029,0.782,38.4031,0.7274,-0.0008,0.2417,-0.0308
18:19:29:475,-5.8751,-2.672,0.921,39.084,0.8436,0.2601,0.3494,-0.0267
18:19:29:495,-5.708,-3,0.885,39.0682,0.916,0.3678,0.507,-0.0209
18:19:29:516,-5.3291,-3.9221,0.5861,39.0568,0.8669,0.338,0.5848,-0.013
18:19:29:535,-5.0471,-4.745,0.5021,39.7663,0.7498,0.2698,0.5433,-0.0038
18:19:29:558,-4.92,-5.2721,0.6671,39.7194,0.6603,0.2612,0.408,0.0058
18:19:29:574,-4.9151,-5.562,1.266,39.0649,0.6508,0.29,0.2386,0.015
18:19:29:595,-5.037,-5.8781,1.5131,39.7903,0.7509,0.3465,0.049,0.0233
18:19:29:615,-5.739,-6.4121,1.07,39.7374,0.7967,0.3838,-0.1449,0.031
18:19:29:634,-7.281,-6.788,0.236,39.7129,0.6762,0.419,-0.1865,0.0381
18:19:29:655,-8.174,-7.757,-0.395,40.4491,0.4271,0.5446,-0.1194,0.0442
18:19:29:677,-8.741,-8.519,-0.1121,39.8395,0.1202,0.6086,-0.1599,0.0494
18:19:29:696,-8.406,-7.961,0.45,39.7058,-0.1749,0.4785,-0.2739,0.0537
18:19:29:715,-8.564,-6.8621,0.837,39.7078,-0.4678,0.1441,-0.3697,0.0562
18:19:29:736,-9.203,-6.8141,0.45,39.6497,-0.7491,-0.1638,-0.2898,0.0561
18:19:29:756,-8.861,-7.7141,0.1481,38.9658,-1.1048,-0.3726,-0.227,0.0532
18:19:29:774,-8.028,-6.7571,0.948,39.653,-1.4607,-0.5856,-0.3462,0.0477
18:19:29:795,-8.423,-5.9021,2.011,39.0304,-1.7194,-0.7763,-0.3794,0.0393
18:19:29:815,-9.206,-6.512,3.7271,39.2706,-1.6801,-0.9074,-0.2611,0.0275
18:19:29:835,-9.498,-7.587,4.316,39.1602,-1.1315,-0.8201,-0.2259,0.0137
18:19:29:855,-9.656,-7.587,2.738,39.3197,-0.5424,-0.5015,-0.3079,-0.0003
18:19:29:874,-10.053,-6.917,1.376,38.9319,-0.4199,-0.1777,-0.2791,-0.0124
18:19:29:895,-9.605,-6.278,1.6541,39.2117,-0.6233,-0.1137,-0.1258,-0.022
18:19:29:916,-8.3081,-5.5001,2.858,39.2047,-0.7873,-0.3215,-0.0448,-0.0296
18:19:29:935,-7.0481,-4.2911,3.7151,39.1618,-0.715,-0.6549,-0.1353,-0.0364
18:19:29:956,-6.581,-2.825,3.636,38.8342,-0.4487,-0.8477,-0.1631,-0.0435
18:19:29:974,-6.234,-2.064,2.772,38.8266,-0.0928,-0.7763,-0.0704,-0.0507
18:19:29:995,-5.8781,-1.968,1.644,39.2976,0.198,-0.4493,0.0606,-0.0571
18:19:30:015,-5.55,-2.1551,0.993,38.0651,0.3429,-0.0861,0.1299,-0.0613
18:19:30:034,-5.516,-2.3111,0.938,38.5545,0.3174,0.0685,0.132,-0.0627
18:19:30:054,-5.873,-2.418,1.029,38.5545,0.1798,-0.0605,0.1001,-0.0618
18:19:30:075,-6.4331,-2.777,0.902,38.5545,-0.0289,-0.2714,0.0969,-0.0602
18:19:30:095,-7.221,-3.338,0.9521,37.9607,-0.2377,-0.3726,0.0756,-0.0591
18:19:30:115,-8.262,-3.8501,1.7501,37.953,-0.3975,-0.265,0.0595,-0.0592
18:19:30:134,-9.4931,-4.607,3.1961,37.9442,-0.2474,-0.0008,0.0862,-0.0605
18:19:30:154,-10.338,-5.7941,3.945,38.3416,0.1713,0.2783,0.1618,-0.0621
18:19:30:175,-10.3451,-6.374,3.4211,38.3422,0.5144,0.3465,0.1768,-0.0623
18:19:30:196,-9.9311,-6.3761,2.2721,38.3416,0.4686,0.1834,0.1246,-0.0602
18:19:30:215,-9.8351,-5.775,2.1521,38.3948,0.1383,-0.1702,0.0393,-0.0565
18:19:30:234,-10.185,-5.255,2.549,38.3084,-0.0928,-0.4983,0.049,-0.0531
18:19:30:254,-9.816,-5.193,2.6141,38.3948,-0.1163,-0.6155,0.115,-0.0515
18:19:30:275,-9.105,-5.0711,2.4821,38.3084,0.0351,-0.4195,0.1224,-0.0516
18:19:30:294,-9.356,-5.651,2.3861,38.3002,0.2779,0.0844,0.1224,-0.0522
18:19:30:314,-10.556,-6.7301,2.822,38.1063,0.575,0.6672,0.1778,-0.0518
18:19:30:335,-11.988,-8.2361,2.628,38.0474,0.7338,1.0271,0.3717,-0.0491
18:19:30:355,-11.528,-9.464,2.681,38.0322,0.5346,0.9802,0.6391,-0.0435
18:19:30:374,-9.773,-9.962,3.557,37.3297,0.2289,0.5723,0.6317,-0.0356
18:19:30:396,-8.169,-8.823,4.41,37.9314,0.1448,0.0109,0.3813,-0.0272
18:19:30:414,-6.842,-6.845,4.431,37.8926,0.3854,-0.3801,0.1342,-0.0203
18:19:30:435,-6.1271,-5.2271,3.33,37.8085,0.8158,-0.4887,-0.0682,-0.0154
18:19:30:455,-5.7461,-4.106,1.704,38.5381,1.2163,-0.2788,-0.1929,-0.0116
18:19:30:475,-5.7101,-3.249,0.27,37.8895,1.4647,0.1654,-0.2441,-0.0077
18:19:30:494,-5.813,-2.579,-0.5051,37.9606,1.5285,0.6331,-0.2109,-0.0022
18:19:30:515,-5.981,-2.193,-0.7901,38.6479,1.4241,0.9111,-0.1077,0.0055
18:19:30:535,-6.0311,-2.04,-0.737,38.0478,1.16,0.9461,0.0351,0.0152
18:19:30:558,-5.9351,-2.421,-0.447,38.776,0.7785,0.7758,0.1885,0.0262
18:19:30:576,-5.801,-3.3161,0.095,38.8266,0.3726,0.5063,0.2844,0.037
18:19:30:596,-5.6051,-4.334,0.744,38.8266,0.0903,0.3124,0.2844,0.0465
18:19:30:617,-5.538,-5.052,1.4261,38.7979,-0.0417,0.2368,0.1928,0.054
18:19:30:640,-6.024,-5.55,1.9511,38.7979,-0.047,0.2388,0.0777,0.0594
18:19:30:656,-7.0481,-6.2351,1.817,38.0373,0.0137,0.2889,0.0393,0.0631
18:19:30:676,-7.793,-7.9661,1.0391,38.0538,-0.0428,0.4338,0.0734,0.0655
18:19:30:695,-7.8941,-9.39,1.1771,38.0276,-0.2122,0.5584,-0.0459,0.0675
18:19:30:716,-7.757,-9.318,1.8911,38.0251,-0.3453,0.5265,-0.3675,0.0689
18:19:30:735,-8.339,-7.772,2.367,38.0105,-0.3154,0.3443,-0.6722,0.0691
18:19:30:757,-9.5021,-6.488,1.364,38.6458,-0.2685,0.1504,-0.749,0.0673
18:19:30:776,-10.7111,-6.326,-0.155,38.6292,-0.5115,0.0023,-0.5668,0.0636
18:19:30:796,-10.412,-6.465,-0.33,37.824,-1.0601,-0.1458,-0.3197,0.0587
18:19:30:816,-9.783,-6.311,1.3001,38.5671,-1.5756,-0.3949,-0.1833,0.0524
18:19:30:837,-9.33,-6.843,3.4091,38.5939,-1.7142,-0.6527,-0.0864,0.0439
18:19:30:856,-8.691,-7.6691,4.6781,37.989,-1.401,-0.8295,-0.1546,0.0333
18:19:30:876,-8.612,-7.4561,4.34,37.9033,-0.7543,-0.7252,-0.3974,0.0213
18:19:30:896,-9.3641,-6.8021,2.978,37.8534,-0.1599,-0.3374,-0.5253,0.0094
18:19:30:916,-9.615,-5.6411,1.8071,37.8435,0.0989,-0.0892,-0.4763,-0.0007
18:19:30:939,-8.921,-4.31,1.1059,37.8276,0.0147,-0.1361,-0.3207,-0.0082
18:19:30:956,-7.8671,-3.0791,0.986,37.2574,-0.2483,-0.4323,-0.1886,-0.0133
18:19:30:975,-7.2401,-2.2871,1.0361,37.3021,-0.4933,-0.753,-0.0682,-0.0175
18:19:30:996,-6.4331,-1.841,1.278,38.027,-0.5647,-0.8712,0.0595,-0.0221
18:19:31:015,-5.6501,-1.736,1.4981,37.4675,-0.4444,-0.7678,0.1277,-0.0273
18:19:31:036,-5.1551,-1.7891,1.4861,37.4751,-0.2068,-0.5335,0.1299,-0.0326
18:19:31:057,-5.217,-2.1671,1.3901,37.3021,0.0851,-0.2021,0.0788,-0.037
18:19:31:076,-5.633,-2.54,1.0511,37.3183,0.3322,0.0802,0.0297,-0.0398
18:19:31:095,-6.153,-3.014,0.5531,37.3183,0.3418,0.1451,-0.0246,-0.0406
18:19:31:128,-7.2371,-3.489,0.749,37.3643,0.0584,-0.1126,-0.0852,-0.0398
18:19:31:140,-8.0351,-4.049,1.199,36.8148,-0.3239,-0.6049,-0.1236,-0.0389
18:19:31:156,-8.7821,-4.5371,1.5701,36.8057,-0.6733,-1.081,-0.1503,-0.0397
18:19:31:176,-9.122,-5.571,1.788,37.6035,-0.8205,-1.0799,-0.0608,-0.0432
18:19:31:196,-8.8511,-6.548,2.252,37.0922,-0.7437,-0.6399,-0.0639,-0.0494
18:19:31:217,-9.311,-6.711,3.138,37.5432,-0.569,-0.1009,-0.1716,-0.0568
18:19:31:239,-10.055,-6.491,4.347,37.1408,-0.3836,0.1621,-0.2217,-0.064
18:19:31:256,-11.0201,-6.3401,5.52,37.6593,-0.1599,0.0344,-0.1972,-0.0698
18:19:31:276,-12.05,-6.7181,5.267,37.6743,0.1383,-0.3119,-0.032,-0.0742
18:19:31:296,-11.2721,-6.8741,3.8831,37.1256,0.3183,-0.6058,0.1374,-0.0771
18:19:31:316,-9.9431,-5.684,2.724,37.6654,0.3823,-0.7497,0.1513,-0.0786
18:19:31:335,-9.9431,-5.243,1.596,37.6566,0.4473,-0.5494,0.2417,-0.0792
18:19:31:357,-10.479,-6.2921,1.0361,36.9325,0.4356,-0.0764,0.4825,-0.0788
18:19:31:377,-10.7,-8.7941,1.2851,36.8175,0.2875,0.3934,0.7446,-0.0767
18:19:31:396,-9.287,-10.5041,2.525,36.7704,0.0744,0.5467,0.7861,-0.0725
18:19:31:416,-7.194,-10.233,3.71,38.0444,-0.0342,0.3209,0.4654,-0.0666
18:19:31:436,-5.6651,-8.385,4.0121,37.3215,0.0084,-0.0466,0.018,-0.0609
18:19:31:457,-5.1191,-6.747,3.5021,37.3215,0.2023,-0.2384,-0.341,-0.0586
18:19:31:476,-5.088,-5.378,2.525,37.217,0.507,-0.1191,-0.5966,-0.0563
18:19:31:497,-5.418,-4.034,1.496,37.217,0.7935,0.2666,-0.7501,-0.0557
18:19:31:516,-6.0071,-2.7461,1.1681,37.1839,0.9767,0.665,-0.7638,-0.0553
18:19:31:535,-6.677,-1.8101,1.235,37.1461,1.0704,0.8407,-0.6115,-0.0535
18:19:31:556,-7.0721,-1.4201,0.993,37.9335,1.0576,0.7715,-0.3334,-0.0496
18:19:31:576,-7.113,-1.772,0.6221,38.0523,0.9383,0.6544,-0.0224,-0.0439
18:19:31:596,-6.929,-2.6411,0.4061,37.2318,0.7732,0.5873,0.2278,-0.0368
18:19:31:616,-6.6371,-3.6611,0.4691,37.9819,0.6028,0.5574,0.3844,-0.0289
18:19:31:636,-6.395,-4.578,0.7151,37.9434,0.4345,0.5211,0.4388,-0.0205
18:19:31:656,-6.332,-5.267,0.9761,37.9116,0.2992,0.4434,0.4133,-0.0122
18:19:31:677,-6.819,-6.117,0.699,37.8974,0.1693,0.4199,0.3674,-0.0045
18:19:31:696,-7.616,-7.688,0.4571,38.6498,-0.0268,0.5009,0.3409,0.0023
18:19:31:718,-8.435,-9.539,0.924,38.6425,-0.1983,0.6852,0.2247,0.008
18:19:31:740,-8.7221,-10.2191,2.36,38.63,-0.1929,0.7684,-0.0309,0.0124
18:19:31:756,-8.621,-8.516,2.7341,37.8807,-0.0055,0.5382,-0.3303,0.0157
18:19:31:776,-8.772,-6.941,1.082,37.8817,0.0403,0.2112,-0.3985,0.0177
18:19:31:797,-9.138,-6.869,-0.761,38.545,-0.34,-0.0807,-0.3367,0.0182
18:19:31:815,-9.773,-7.4561,-1.247,38.5009,-0.9695,-0.2299,-0.2526,0.0171
18:19:31:835,-9.354,-7.025,0.387,38.5497,-1.5118,-0.2799,-0.1534,0.0135
18:19:31:856,-8.571,-6.594,2.7191,38.5665,-1.6727,-0.3002,-0.0949,0.0068
18:19:31:877,-8.4611,-6.9461,4.9721,38.463,-1.3232,-0.2683,-0.0639,-0.0023
18:19:31:896,-8.198,-7.733,5.2691,39.1486,-0.5413,-0.1893,-0.1449,-0.0125
18:19:31:915,-8.636,-7.698,3.0041,37.8878,0.0818,0.029,-0.3367,-0.0215
18:19:31:937,-9.423,-6.972,1.307,37.8878,0.0979,0.1451,-0.3569,-0.0278
18:19:31:956,-9.1601,-5.844,1.2491,38.6006,-0.2665,-0.0381,-0.2152,-0.0319
18:19:31:975,-7.8221,-4.6661,2.195,38.0268,-0.5797,-0.4397,-0.0715,-0.0352
18:19:31:996,-6.371,-3.4571,2.568,38.0906,-0.6233,-0.7508,-0.0267,-0.039
18:19:32:016,-5.574,-2.567,2.3891,38.0645,-0.4731,-0.8104,-0.0289,-0.0439
18:19:32:036,-5.183,-2.069,1.9841,38.1457,-0.2133,-0.6347,-0.0331,-0.0495
18:19:32:056,-5.0921,-1.791,1.458,38.7327,0.0605,-0.3002,-0.0341,-0.0548
18:19:32:077,-5.2121,-1.712,1.113,38.7317,0.2586,0.0364,-0.0363,-0.0586
18:19:32:096,-5.868,-1.695,0.909,38.7317,0.3578,0.2453,-0.0224,-0.0603
18:19:32:116,-6.6101,-2.251,0.608,38.6454,0.3279,0.3337,0.0894,-0.0601
18:19:32:136,-7.187,-3.714,0.519,39.2502,0.2054,0.373,0.2034,-0.0584
18:19:32:158,-7.221,-5.2511,0.581,38.6614,0.0712,0.4125,0.1991,-0.0557
18:19:32:177,-7.044,-5.174,0.7301,38.6609,-0.1088,0.3454,0.0137,-0.0525
18:19:32:195,-8.061,-4.865,1.034,38.6005,-0.3666,0.2751,-0.0758,-0.0499
18:19:32:216,-9.2291,-6.072,2.0921,38.6357,-0.6351,0.143,0.0021,-0.0487
18:19:32:236,-9.7781,-7.559,3.7421,39.3398,-0.6255,0.0184,0.0254,-0.0491
18:19:32:256,-9.804,-7.7051,4.821,38.7767,-0.2591,-0.1084,-0.081,-0.051
18:19:32:277,-10.058,-6.603,3.974,39.3303,0.1352,-0.3502,-0.1557,-0.0535
18:19:32:295,-10.415,-5.9981,2.24,39.3303,0.1565,-0.6282,-0.0469,-0.0557
18:19:32:317,-9.869,-6.053,1.541,39.3203,-0.1013,-0.9639,0.114,-0.0575
18:19:32:336,-8.753,-5.7341,1.508,39.3168,-0.2281,-1.0438,0.1437,-0.0594
18:19:32:357,-8.7551,-5.571,1.742,39.3953,-0.0609,-0.6868,0.1118,-0.0623
18:19:32:377,-9.7271,-6.239,1.62,38.6085,0.2619,-0.0531,0.2109,-0.0652
18:19:32:396,-10.802,-8.354,1.379,39.2061,0.3972,0.5371,0.4185,-0.0664
18:19:32:415,-10.905,-10.638,2.171,39.2061,0.2822,0.8258,0.539,-0.0647
18:19:32:436,-9.376,-10.896,3.8231,39.2061,0.1405,0.5989,0.3909,-0.0605
18:19:32:457,-7.791,-9.0071,4.517,38.4972,0.166,0.0353,0.0436,-0.0552
18:19:32:475,-6.8111,-7.0511,4.043,38.4811,0.3844,-0.3556,-0.2035,-0.051
18:19:32:495,-6.129,-5.679,3.119,38.5056,0.8126,-0.3545,-0.4272,-0.0484
18:19:32:515,-5.949,-4.176,1.479,38.5376,1.2728,-0.0807,-0.6446,-0.0469
18:19:32:536,-6.6131,-2.2819,-0.555,37.78,1.3996,0.2655,-0.6935,-0.0449
18:19:32:556,-7.142,-0.8381,-1.424,38.548,1.1279,0.4977,-0.4326,-0.0415
18:19:32:576,-6.881,-0.4721,-1.0841,38.695,0.7242,0.5413,-0.048,-0.0365
18:19:32:597,-6.0791,-1.238,-0.153,38.0846,0.3578,0.4392,0.2439,-0.0306
18:19:32:615,-5.2721,-2.294,1.007,38.0979,0.1693,0.3954,0.375,-0.0243
18:19:32:635,-5.1191,-3.216,2.08,38.893,0.2417,0.4242,0.3664,-0.0184
18:19:32:656,-5.856,-4.2521,1.934,39.7176,0.4291,0.4562,0.3142,-0.0127
18:19:32:676,-6.4331,-5.0501,1.0121,38.8642,0.4078,0.4306,0.3131,-0.0068
18:19:32:696,-6.912,-5.873,0.8591,38.3018,0.2321,0.4401,0.3057,-0.0006
18:19:32:716,-7.9511,-7.305,1.3091,38.2915,0.1426,0.5776,0.2716,0.0054
18:19:32:736,-9.1481,-8.964,1.7741,39.1764,0.1596,0.6991,0.2109,0.0108
18:19:32:755,-9.785,-9.939,1.836,39.1611,0.1713,0.6661,0.114,0.0158
18:19:32:774,-9.354,-9.4121,1.778,38.3415,0.0851,0.3923,-0.0502,0.0205
18:19:32:794,-9.081,-7.743,1.206,38.5713,-0.0268,0.0588,-0.2024,0.0244
18:19:32:819,-9.617,-7.008,0.1961,38.3018,-0.161,-0.1126,-0.2163,0.0263
18:19:32:836,-10.094,-7.5851,-0.864,38.2886,-0.4561,-0.1084,-0.113,0.0263
18:19:32:855,-8.8991,-7.116,-0.038,38.1344,-0.8748,-0.1617,-0.0906,0.0248
18:19:32:876,-8.3321,-5.9351,1.625,37.3892,-1.0761,-0.2874,-0.1492,0.0215
18:19:32:895,-8.667,-5.868,3.1331,38.0325,-0.9109,-0.363,-0.1204,0.016
18:19:32:915,-9.306,-6.8,3.078,37.2826,-0.4498,-0.3065,-0.1055,0.009
18:19:32:935,-9.9191,-7.338,1.5251,37.9182,-0.1099,-0.15,-0.1258,0.0022
18:19:32:955,-10.106,-6.692,0.497,37.2703,-0.1972,-0.1233,-0.0459,-0.0031
18:19:32:976,-9.1961,-6.0101,0.813,36.509,-0.5349,-0.2905,0.1405,-0.0071
18:19:32:996,-7.6061,-5.634,1.7501,37.2296,-0.8066,-0.5771,0.2321,-0.0106
18:19:33:016,-6.2921,-4.901,2.442,36.5249,-0.8299,-0.7869,0.1789,-0.0149
18:19:33:039,-5.495,-3.963,2.631,36.5442,-0.6201,-0.7828,0.1022,-0.0203
18:19:33:057,-4.922,-3.117,2.621,36.5541,-0.2548,-0.5526,0.051,-0.0264
18:19:33:076,-4.5581,-2.244,2.078,36.5541,0.1628,-0.2809,0.0074,-0.032
18:19:33:095,-4.46,-1.9061,1.2011,35.1938,0.3961,-0.1382,-0.0128,-0.0358
18:19:33:116,-4.575,-2.021,0.474,35.9638,0.4377,-0.1723,-0.0715,-0.0372
18:19:33:141,-5.073,-1.736,-0.2921,35.9607,0.4058,-0.2512,-0.1588,-0.0369
18:19:33:155,-5.9141,-1.8101,-1.34,35.9491,0.2214,-0.1787,-0.1343,-0.0362
18:19:33:174,-6.3971,-2.7251,-1.122,35.9491,-0.0652,0.0344,-0.0469,-0.0357
18:19:33:195,-6.2771,-3.6371,-0.014,35.9491,-0.227,0.2666,-0.0608,-0.0356
18:19:33:217,-6.7631,-4.683,0.83,35.9496,-0.2036,0.5339,-0.1833,-0.0358
18:19:33:239,-8.169,-6.299,1.23,35.2432,-0.1781,0.8067,-0.3015,-0.0363
18:19:33:257,-9.5021,-8.4401,2.58,35.326,-0.1525,0.9707,-0.4304,-0.0368
18:19:33:276,-10.283,-8.4281,3.921,34.6607,0.0425,0.8067,-0.6574,-0.0372
18:19:33:295,-10.958,-6.7331,3.6941,35.3348,0.1713,0.3869,-0.7756,-0.0379
18:19:33:316,-11.7671,-5.1791,2.87,35.4507,-0.0066,-0.264,-0.62,-0.0389
18:19:33:336,-11.858,-5.1641,2.444,34.9292,-0.2898,-0.8914,-0.2685,-0.0411
18:19:33:356,-11.028,-5.631,1.92,35.594,-0.3549,-1.1715,-0.0715,-0.0449
18:19:33:375,-11.186,-6,1.017,35.7716,-0.1898,-0.8104,0.0308,-0.0502
18:19:33:395,-11.7821,-7.238,0.957,35.6051,0.0062,0.0014,0.2406,-0.0558
18:19:33:416,-12.0791,-8.706,1.941,35.6051,0.1585,0.6596,0.4313,-0.0595
18:19:33:436,-11.906,-9.668,2.9591,34.1186,0.1596,0.828,0.5911,-0.0597
18:19:33:457,-10.5941,-9.881,4.182,34.0013,0.0946,0.4498,0.6806,-0.0565
18:19:33:478,-8.585,-9.359,4.158,34.0165,0.1309,-0.2351,0.5581,-0.0513
18:19:33:495,-6.945,-7.614,3.102,34.0165,0.2586,-0.6964,0.2971,-0.0462
18:19:33:515,-5.8511,-5.583,1.893,33.9956,0.4643,-0.7817,0.0905,-0.0425
18:19:33:535,-5.3171,-3.96,0.4901,34.677,0.6369,-0.6144,-0.0374,-0.0403
18:19:33:558,-5.0561,-2.7341,-0.545,34.0249,0.7051,-0.2692,-0.0704,-0.0388
18:19:33:576,-5.03,-1.9661,-1.07,34.7557,0.6284,0.0364,-0.0278,-0.0369
18:19:33:595,-5.097,-1.7,-1.067,34.7413,0.4291,0.2474,0.0777,-0.0341
18:19:33:617,-4.992,-2.04,-0.306,34.7294,0.198,0.3454,0.1928,-0.0306
18:19:33:635,-4.8671,-2.801,0.711,34.7149,0.0733,0.3508,0.2375,-0.0267
18:19:33:657,-5.135,-3.764,1.3811,34.703,0.1128,0.3369,0.1821,-0.0229
18:19:33:675,-5.583,-4.446,1.077,34.6357,0.1713,0.2751,0.0958,-0.0193
18:19:33:700,-5.8061,-4.896,0.629,34.703,0.0946,0.2612,0.0032,-0.016
18:19:33:714,-6.416,-5.124,0.533,34.703,-0.0331,0.3102,-0.0917,-0.0131
18:19:33:734,-7.5131,-6.249,0.7181,34.703,-0.1429,0.4381,-0.1353,-0.011
18:19:33:757,-8.6981,-7.824,1.0121,34.703,-0.2196,0.5808,-0.1844,-0.01
18:19:33:775,-9.9551,-9.0911,1.527,35.3538,-0.3006,0.6511,-0.2685,-0.0096
18:19:33:794,-10.5971,-8.835,2.559,34.6404,-0.3677,0.502,-0.3388,-0.0099
18:19:33:815,-10.733,-7.4411,3.1691,35.3111,-0.3134,0.1995,-0.3217,-0.0112
18:19:33:835,-10.838,-6.486,2.556,34.6449,-0.2122,-0.1074,-0.179,-0.0133
18:19:33:856,-10.757,-6.714,0.9671,34.6449,-0.3165,-0.4045,0.0308,-0.0158
18:19:33:877,-9.917,-6.656,0.0881,35.3342,-0.6969,-0.6186,0.1513,-0.0184
18:19:33:895,-9.0161,-5.358,1.098,34.8101,-1.1037,-0.8082,0.1896,-0.0219
18:19:33:917,-8.717,-5.198,2.925,34.8193,-1.1847,-0.8616,0.3259,-0.0272
18:19:33:934,-8.4131,-6.656,4.2611,34.8193,-0.7523,-0.7678,0.3963,-0.034
18:19:33:956,-7.9961,-7.901,3.351,34.8193,-0.0118,-0.3886,0.2343,-0.0409
18:19:33:974,-8.289,-7.463,1.709,34.8193,0.4909,0.1569,-0.0256,-0.0459
18:19:33:994,-9.222,-6.108,0.9881,35.4183,0.5283,0.388,-0.0799,-0.048
18:19:34:015,-9.134,-5.093,1.254,34.8193,0.296,0.1995,0.1064,-0.0475
18:19:34:035,-7.989,-4.535,1.46,34.8193,-0.0076,-0.3172,0.2769,-0.0454
18:19:34:057,-6.627,-4.008,1.209,34.8193,-0.2611,-0.7997,0.3259,-0.0431
18:19:34:076,-5.6051,-3.273,1.07,35.1105,-0.3495,-0.9415,0.3057,-0.042
18:19:34:095,-4.973,-2.706,1.098,35.1105,-0.2707,-0.8062,0.2652,-0.0426
18:19:34:115,-4.6211,-2.409,1.118,35.1105,-0.0652,-0.5079,0.2258,-0.0443
18:19:34:137,-4.3121,-2.385,0.9071,35.1105,0.1937,-0.1958,0.1448,-0.0458
18:19:34:158,-4.475,-2.6291,0.414,35.6517,0.393,0.1196,0.0106,-0.0462
18:19:34:175,-5.013,-3.0101,0.1241,35.553,0.4686,0.419,-0.1034,-0.0453
18:19:34:195,-5.964,-3.5561,0.359,35.6517,0.4579,0.6575,-0.1929,-0.0431
18:19:34:216,-7.154,-4.386,0.593,34.8193,0.41,0.765,-0.2302,-0.0401
18:19:34:235,-7.7831,-4.961,0.723,35.6517,0.2927,0.7161,-0.2643,-0.0365
18:19:34:257,-8.415,-5.43,0.821,35.553,0.0989,0.583,-0.3058,-0.0329
18:19:34:275,-9,-6.0911,1.163,35.553,-0.1525,0.4179,-0.326,-0.0302
18:19:34:294,-9.39,-6.524,2.003,35.6517,-0.3495,0.2271,-0.3708,-0.0289
18:19:34:317,-9.806,-6.093,3.038,36.3781,-0.406,-0.0147,-0.4357,-0.0295
18:19:34:335,-10.733,-5.181,3.4211,35.9761,-0.3623,-0.3949,-0.3911,-0.0321
18:19:34:358,-11.229,-5.3321,2.81,35.9761,-0.3165,-0.7081,-0.131,-0.036
18:19:34:376,-10.4531,-6.4361,2.094,36.7153,-0.3367,-0.8658,0.0617,-0.0407
18:19:34:395,-9.3011,-6.6581,1.884,36.8668,-0.3634,-0.8849,0.0032,-0.0455
18:19:34:414,-9.833,-6.515,1.7831,36.2102,-0.225,-0.6027,-0.0991,-0.0506
18:19:34:435,-10.74,-7.3031,1.6661,36.2102,0.0201,-0.0232,-0.0213,-0.0557
18:19:34:456,-11.6021,-8.619,1.965,36.2102,0.198,0.5637,0.0692,-0.058
18:19:34:475,-11.559,-9.242,2.7431,36.0833,0.1958,0.7684,0.1587,-0.0599
18:19:34:495,-10.563,-8.725,3.8231,36.5887,0.1202,0.4977,0.1394,-0.0588
18:19:34:514,-9.557,-7.7411,4.266,36.5887,0.166,-0.0147,0.049,-0.0563
18:19:34:534,-8.222,-6.101,3.617,35.732,0.3865,-0.4003,-0.0725,-0.0539
18:19:34:555,-7.613,-4.4081,2.252,36.2805,0.6869,-0.4536,-0.146,-0.0522
18:19:34:577,-7.173,-3.117,0.761,36.1303,0.9053,-0.2905,-0.096,-0.0506
18:19:34:595,-6.807,-2.177,-0.366,36.0448,0.9533,0.0034,0.0415,-0.0481
18:19:34:615,-6.4931,-1.815,-0.849,36.6611,0.818,0.2325,0.2375,-0.044
18:19:34:635,-6.2681,-2.15,-0.519,36.6611,0.5644,0.3092,0.4058,-0.0384
18:19:34:657,-6.158,-2.639,0.318,37.293,0.3546,0.2175,0.5294,-0.0316
18:19:34:676,-5.856,-3.2951,0.7181,37.2368,0.2332,0.0727,0.605,-0.0246
18:19:34:695,-5.595,-3.9791,0.974,37.2368,0.181,0.0344,0.6039,-0.018
18:19:34:715,-5.552,-4.4651,1.28,37.8912,0.2086,0.0557,0.5368,-0.0119
18:19:34:735,-5.873,-4.664,1.1321,37.8912,0.2694,0.1132,0.4623,-0.0063
18:19:34:758,-6.131,-5.0141,0.653,37.8912,0.2395,0.1643,0.4335,-0.0009
18:19:34:775,-6.6701,-6.053,0.315,38.5737,0.0808,0.224,0.3963,0.0043
18:19:34:797,-7.314,-7.6091,0.366,38.5737,-0.1195,0.2922,0.3196,0.0092
18:19:34:815,-7.805,-8.9141,0.5981,38.57,-0.3219,0.3688,0.1288,0.013
18:19:34:834,-8.066,-8.796,1.647,37.9394,-0.4795,0.3602,-0.1566,0.0154
18:19:34:855,-8.813,-7.329,2.171,37.9394,-0.4667,0.1995,-0.3484,0.0159
18:19:34:876,-9.584,-6.984,1.163,38.6216,-0.4709,0.0791,-0.3069,0.0141
18:19:34:895,-9.648,-7.985,0.153,38.0163,-0.748,0.0109,-0.2376,0.0108
18:19:34:915,-8.6021,-7.439,1.211,38.1345,-1.1411,-0.0967,-0.3484,0.0064
18:19:34:935,-8.765,-5.921,3.0071,38.341,-1.303,-0.265,-0.4432,0.0001
18:19:34:958,-9.519,-6.3641,4.6421,38.341,-1.1144,-0.378,-0.3207,-0.0085
18:19:34:975,-9.555,-7.463,4.9631,38.358,-0.5296,-0.3652,-0.2951,-0.0185
18:19:34:995,-9.7541,-7.413,3.11,38.8636,0.0318,-0.1458,-0.4059,-0.028
18:19:35:018,-10.3241,-6.797,1.944,38.358,0.1798,0.1026,-0.3889,-0.0353
18:19:35:035,-10.13,-5.73,2.159,37.8379,0.0957,0.0983,-0.2206,-0.0402
18:19:35:055,-8.583,-4.86,2.487,37.8379,-0.0322,-0.2032,-0.032,-0.0432
18:19:35:075,-6.7781,-3.903,2.255,37.8379,-0.1567,-0.6475,-0.0161,-0.0452
18:19:35:095,-5.8061,-2.94,1.68,37.8986,-0.1759,-0.8881,-0.0736,-0.0473
18:19:35:116,-5.315,-2.234,1.0841,40.3093,-0.0513,-0.7604,-0.1204,-0.0502
18:19:35:152,-5.099,-1.631,0.5981,40.2663,0.1522,-0.3268,-0.1247,-0.0536
18:19:35:158,-5.078,-1.4801,0.45,40.4679,0.3046,0.1154,-0.1012,-0.0563
18:19:35:174,-5.363,-1.8491,0.4901,40.195,0.3365,0.3081,-0.1077,-0.0573
18:19:35:195,-5.696,-2.145,0.2801,39.4651,0.2619,0.2889,-0.1279,-0.0566
18:19:35:215,-6.222,-2.904,0.045,39.5565,0.0605,0.2271,-0.1301,-0.0551
18:19:35:237,-7.034,-4.032,0.2681,39.7994,-0.1471,0.2175,-0.1407,-0.0538
18:19:35:258,-7.508,-5.232,0.7631,39.5265,-0.3006,0.2175,-0.1727,-0.0532
18:19:35:276,-7.551,-5.897,1.089,39.7097,-0.389,0.2027,-0.2898,-0.0537
18:19:35:295,-8.135,-6.333,1.52,40.466,-0.4157,0.2761,-0.4645,-0.0554
18:19:35:315,-9.2681,-6.381,2.106,40.346,-0.3688,0.3625,-0.5955,-0.0585
18:19:35:335,-10.4531,-6.2921,2.75,40.1447,-0.2941,0.3465,-0.6105,-0.0625
18:19:35:356,-11.351,-5.864,3.078,39.5759,-0.2324,0.1196,-0.5242,-0.0667
18:19:35:375,-12.15,-5.4251,2.6,39.2706,-0.2611,-0.2256,-0.2919,-0.0709
18:19:35:396,-11.901,-6.2711,1.982,40.3287,-0.4785,-0.5813,0.0276,-0.0749
18:19:35:416,-10.604,-6.584,2.444,40.2779,-0.6436,-0.7987,0.1374,-0.079
18:19:35:436,-9.9641,-5.904,3.1121,40.1531,-0.4487,-0.6922,0.1309,-0.0838
18:19:35:457,-10.269,-6.0311,2.7191,40.1286,-0.0331,-0.2522,0.2226,-0.089
18:19:35:475,-11.037,-7.695,2.1971,40.1207,0.296,0.3539,0.3887,-0.0929
18:19:35:495,-11.7431,-9.33,2.1881,41.1928,0.3376,0.714,0.522,-0.0936
18:19:35:515,-11.2571,-9.7901,3.138,41.2931,0.1383,0.6117,0.6061,-0.0908
18:19:35:535,-9.833,-9.165,4.3091,41.2588,-0.0236,0.1504,0.5901,-0.0858
18:19:35:556,-7.9991,-7.7021,4.9001,41.3906,0.0818,-0.3652,0.5123,-0.0806
18:19:35:576,-6.294,-5.892,3.792,41.704,0.4345,-0.6421,0.3887,-0.0763
18:19:35:595,-5.339,-4.391,2.078,41.635,0.7231,-0.6262,0.2875,-0.0726
18:19:35:615,-4.764,-3.393,0.536,42.5278,0.8808,-0.3992,0.2204,-0.0689
18:19:35:635,-4.805,-2.706,-0.3281,43.5223,0.8797,-0.0318,0.2076,-0.0647
18:19:35:657,-5.066,-2.399,-0.375,42.6505,0.7743,0.2709,0.2918,-0.0594
18:19:35:678,-5.133,-2.5691,0.1721,43.2768,0.6273,0.4306,0.4143,-0.053
18:19:35:695,-4.8671,-3.117,0.921,43.3642,0.4962,0.4605,0.4889,-0.0457
18:19:35:715,-4.7591,-3.833,1.7261,43.9075,0.4302,0.3943,0.4665,-0.0379
18:19:35:735,-4.98,-4.4291,2.006,43.6466,0.4962,0.3209,0.4069,-0.0302
18:19:35:758,-5.037,-5.0831,1.314,43.6924,0.542,0.2826,0.3142,-0.0227
18:19:35:775,-5.3531,-5.3801,0.6941,43.3054,0.4632,0.3092,0.1693,-0.0154
18:19:35:795,-6.3281,-5.976,0.282,43.7544,0.312,0.4232,0.0703,-0.0087
18:19:35:815,-7.202,-7.35,0.3491,43.832,0.1053,0.5244,0.0128,-0.0029
18:19:35:837,-7.704,-8.84,0.557,44.1525,-0.1343,0.5339,-0.1588,0.0017
18:19:35:857,-8.193,-9.2471,1.247,44.0977,-0.373,0.4401,-0.4432,0.0047
18:19:35:875,-9.0161,-8.366,2.015,43.8511,-0.4678,0.2357,-0.6478,0.0052
18:19:35:897,-9.392,-7.619,1.6421,43.5188,-0.3911,0.0588,-0.6935,0.0029
18:19:35:915,-9.905,-7.7171,-0.153,43.6674,-0.4689,-0.0062,-0.6861,-0.0016
18:19:35:935,-10.415,-7.865,-0.768,43.264,-0.8811,0.0898,-0.6265,-0.0075
18:19:35:957,-9.783,-6.477,1.4501,45.2547,-1.2731,0.0631,-0.5625,-0.0145
18:19:35:975,-9.488,-5.234,3.557,44.2064,-1.3382,-0.1191,-0.4176,-0.0232
18:19:35:996,-9.462,-6.192,5.288,43.9692,-1.0229,-0.3556,-0.2003,-0.0334
18:19:36:015,-9.428,-7.6811,4.6751,43.9109,-0.3517,-0.3598,-0.1918,-0.0437
18:19:36:035,-9.869,-7.6331,2.844,44.3653,0.1915,-0.0093,-0.3079,-0.0526
18:19:36:057,-10.427,-6.318,2.1041,43.7329,0.329,0.2123,-0.227,-0.0587
18:19:36:075,-9.708,-5.4041,2.181,44.3229,0.1787,-0.0679,0.0351,-0.0619
18:19:36:095,-7.616,-4.899,1.757,43.8417,-0.0789,-0.6314,0.1811,-0.0631
18:19:36:119,-5.478,-2.84,1.13,44.0081,-0.1557,-0.9457,-0.0203,-0.0638
18:19:36:140,-5.222,-1.863,0.732,44.7675,0.0477,-0.5878,-0.0096,-0.0655
18:19:36:157,-4.85,-1.872,0.7751,44.2243,0.2918,-0.0807,0.0606,-0.0684
18:19:36:177,-4.8191,-2.382,0.378,44.8607,0.5048,0.1899,0.0478,-0.0712
18:19:36:197,-4.5461,-2.849,-0.596,44.7279,0.4345,0.2985,-0.0096,-0.0723
18:19:36:217,-4.7621,-3.204,-0.495,44.728,0.183,0.4019,-0.1631,-0.0713
18:19:36:237,-6.0431,-3.8051,0.6701,45.4499,0.1085,0.6181,-0.2908,-0.0687
18:19:36:258,-7.419,-4.245,1.2971,44.8712,0.2321,0.8216,-0.342,-0.0661
18:19:36:277,-8.3921,-4.401,1.376,44.7973,0.2577,0.8002,-0.3345,-0.0641
18:19:36:296,-9.5861,-4.4081,1.311,44.6834,0.0989,0.5296,-0.2823,-0.0623
18:19:36:317,-10.632,-5.04,1.3571,45.1896,-0.1749,0.1601,-0.0884,-0.0599
18:19:36:337,-10.7501,-6.0791,1.781,44.6927,-0.4348,-0.1808,0.116,-0.0576
18:19:36:357,-10.2971,-6.749,2.31,45.4463,-0.5488,-0.4099,0.1948,-0.0561
18:19:36:377,-9.972,-6.836,2.8031,45.2621,-0.5488,-0.5483,0.2013,-0.0559
18:19:36:396,-10.032,-6.9431,2.9681,44.9675,-0.4731,-0.6933,0.2024,-0.0571
18:19:36:417,-10.278,-7.6541,2.595,45.3248,-0.3475,-0.7359,0.2024,-0.0595
18:19:36:436,-9.567,-7.7411,2.2841,45.5836,-0.2153,-0.672,0.1203,-0.0627
18:19:36:457,-8.9801,-6.117,2.181,45.4892,0.0254,-0.5089,-0.0736,-0.0662
18:19:36:476,-10.041,-5.39,1.2251,45.6549,0.2799,-0.1638,-0.0469,-0.0696
18:19:36:495,-10.862,-6.606,0.548,45.5528,0.296,0.2016,0.2034,-0.0726
18:19:36:516,-11.066,-8.588,0.8591,45.6025,0.1085,0.4861,0.3813,-0.0746
18:19:36:536,-10.041,-9.158,2.5181,45.5225,-0.0917,0.4711,0.4154,-0.0745
18:19:36:558,-8.511,-8.466,3.701,45.7247,-0.1471,0.1132,0.3014,-0.0724
18:19:36:577,-6.7541,-7.4531,3.768,44.5374,-0.047,-0.2894,0.1257,-0.0693
18:19:36:596,-6.083,-6.551,2.765,45.0143,0.2119,-0.3726,-0.131,-0.0665
18:19:36:616,-6.024,-5.327,1.616,44.9746,0.5505,-0.0446,-0.3249,-0.0648
18:19:36:636,-6.242,-3.582,0.677,45.6226,0.7168,0.3273,-0.4102,-0.0644
18:19:36:657,-6.74,-2.205,0.548,44.7546,0.6432,0.4892,-0.2908,-0.0641
18:19:36:676,-6.72,-1.688,1.053,45.4597,0.5218,0.4434,-0.0341,-0.063
18:19:36:696,-6.2801,-1.901,1.4651,45.7857,0.4781,0.2655,0.2109,-0.0606
18:19:36:715,-5.667,-2.7581,1.091,45.531,0.4994,0.1899,0.3472,-0.0569
18:19:36:736,-5.538,-3.651,0.8351,45.7209,0.4814,0.2718,0.3622,-0.0523
18:19:36:759,-5.952,-4.415,1.103,46.4365,0.476,0.4338,0.3451,-0.047
18:19:36:777,-6.447,-4.875,1.613,46.5667,0.5272,0.5552,0.3227,-0.0411
18:19:36:795,-6.747,-5.0621,1.484,46.542,0.542,0.5083,0.3301,-0.0349
18:19:36:816,-6.938,-5.828,0.8591,46.6993,0.3823,0.3849,0.344,-0.0282
18:19:36:836,-7.628,-7.2521,0.7661,46.5678,0.1426,0.34,0.3196,-0.021
18:19:36:857,-8.229,-8.8781,1.163,46.3952,-0.0098,0.3891,0.2173,-0.014
18:19:36:876,-8.5661,-9.522,1.7231,46.5162,-0.0661,0.3869,-0.0107,-0.0081
18:19:36:895,-8.894,-8.813,2.291,46.2605,-0.0459,0.2559,-0.26,-0.0034
18:19:36:915,-9.476,-7.331,1.7261,46.2342,0.0297,0.0109,-0.3963,-0.0003
18:19:36:936,-10.218,-6.627,0.186,46.1928,-0.095,-0.2032,-0.3186,0.0012
18:19:36:958,-10.017,-6.2921,-0.567,46.278,-0.5008,-0.3119,-0.1268,0.001
18:19:36:976,-8.8871,-5.1071,0.689,46.2427,-0.9067,-0.4738,0.0021,-0.0006
18:19:36:997,-8.626,-5.481,2.018,46.5205,-1.0633,-0.5984,0.1427,-0.0034
18:19:37:015,-8.504,-7.319,3.2291,46.1973,-0.8726,-0.6144,0.1726,-0.0079
18:19:37:037,-8.262,-8.3321,3.222,45.7668,-0.3347,-0.3439,-0.0619,-0.0137
18:19:37:058,-9.225,-7.475,2.468,45.6018,0.1702,0.0833,-0.3143,-0.0205
18:19:37:076,-9.881,-6.2441,1.9841,45.0195,0.3609,0.2709,-0.2654,-0.0267
18:19:37:095,-9.2891,-5.402,1.8191,45.5592,0.2586,0.0705,-0.0821,-0.0313
18:19:37:114,-7.8221,-4.463,1.805,45.582,0.0414,-0.4014,0.0234,-0.0337
18:19:37:134,-6.491,-3.395,1.517,44.8586,-0.0694,-0.7902,0.0265,-0.0342
18:19:37:154,-5.6411,-2.5571,0.938,44.727,-0.0012,-0.8712,0.0043,-0.0343
18:19:37:175,-5.1191,-2.028,0.225,46.1723,0.1458,-0.6229,-0.0043,-0.0352
18:19:37:195,-4.841,-1.7771,-0.1721,45.5833,0.3046,-0.1777,-0.015,-0.037
18:19:37:217,-4.965,-1.7171,-0.2051,44.6697,0.3982,0.2303,-0.0384,-0.0387
18:19:37:236,-5.336,-1.9391,0.134,44.4813,0.3833,0.4455,-0.0309,-0.0395
18:19:37:257,-5.744,-2.619,0.7151,44.5482,0.3237,0.4753,-0.0278,-0.0387
18:19:37:276,-6.462,-3.5561,0.9191,44.7043,0.2747,0.4295,-0.048,-0.0366
18:19:37:296,-7.281,-4.499,0.998,45.2544,0.2097,0.3699,-0.0821,-0.0337
18:19:37:317,-8.243,-4.872,1.098,45.4169,0.1287,0.2709,-0.1279,-0.0305
18:19:37:335,-9.308,-5.2961,0.78,45.4245,-0.0118,0.1578,-0.0969,-0.0276
18:19:37:355,-9.672,-6.072,0.857,44.8235,-0.275,0.0311,-0.015,-0.0252
18:19:37:375,-9.4931,-6.611,1.4621,45.6228,-0.5594,-0.1297,-0.0085,-0.0235
18:19:37:395,-9.387,-6.783,2.5181,45.5442,-0.7363,-0.3055,-0.0715,-0.023
18:19:37:415,-9.5261,-6.4571,3.4571,46.174,-0.7321,-0.5111,-0.1396,-0.0241
18:19:37:437,-9.962,-6.2921,3.4811,45.6623,-0.602,-0.6751,-0.1375,-0.0274
18:19:37:457,-9.72,-6.3401,2.7671,45.5296,-0.505,-0.722,-0.0969,-0.0324
18:19:37:475,-9.155,-5.888,2.669,45.2918,-0.4177,-0.608,-0.1566,-0.0385
18:19:37:495,-9.804,-5.5931,2.6,45.057,-0.1642,-0.2512,-0.1779,-0.045
18:19:37:515,-10.764,-6.359,2.465,44.9519,0.1213,0.2644,-0.0725,-0.0514
18:19:37:535,-11.784,-8.088,2.5211,44.9426,0.2375,0.6937,0.0862,-0.0571
18:19:37:558,-11.4581,-9.2321,3.605,45.0839,0.1958,0.8407,0.2258,-0.0606
18:19:37:575,-10.508,-9.108,5.006,44.6292,0.2247,0.5446,0.1565,-0.0611
18:19:37:595,-9.555,-8.081,4.977,44.6983,0.3833,0.0216,0.0543,-0.0591
18:19:37:615,-8.1379,-6.2831,3.842,45.3872,0.6358,-0.2991,-0.0341,-0.0556
18:19:37:635,-7.431,-5.246,2.2121,44.7506,0.9416,-0.249,-0.0522,-0.0521
18:19:37:660,-6.23,-4.125,0.713,45.0838,1.1407,0.0173,-0.0693,-0.0489
18:19:37:676,-5.442,-2.655,-0.1361,45.4685,1.1568,0.2666,-0.1225,-0.0454
18:19:37:697,-5.315,-1.334,-0.3611,45.6483,1.031,0.3763,-0.0758,-0.0409
18:19:37:715,-5.571,-1.0631,-0.404,45.3614,0.8404,0.3816,0.1192,-0.035
18:19:37:736,-5.585,-1.7621,-0.201,45.9963,0.6539,0.3763,0.3079,-0.028
18:19:37:760,-5.717,-2.9501,0.1841,45.8927,0.5272,0.4466,0.4091,-0.0205
18:19:37:776,-5.945,-4.2791,0.7901,45.6945,0.4408,0.4839,0.4143,-0.0127
18:19:37:795,-6.297,-4.971,1.149,46.2398,0.3961,0.4583,0.3514,-0.0048
18:19:37:814,-6.7541,-5.2361,1.029,45.9907,0.2885,0.355,0.2993,0.003
18:19:37:836,-7.2851,-5.646,1.1081,46.1249,0.0914,0.2038,0.2855,0.0105
18:19:37:858,-7.637,-6.675,1.259,45.5963,-0.0587,0.1089,0.2833,0.0173
18:19:37:877,-8.0471,-8.004,1.362,45.5404,-0.0704,0.1782,0.1959,0.0228
18:19:37:896,-8.339,-8.703,1.11,45.4981,-0.0331,0.2932,0.0159,0.0267
18:19:37:915,-8.609,-8.018,0.938,45.4362,-0.0683,0.3284,-0.2248,0.0294
18:19:37:935,-9.675,-6.69,0.6,46.0548,-0.1919,0.208,-0.3004,0.0321
18:19:37:959,-10.6301,-6.6251,-0.026,46.2114,-0.4401,0.0876,-0.1557,0.0317
18:19:37:975,-10.589,-7.235,0.155,45.5454,-0.8726,-0.0455,0.0703,0.0301
18:19:37:995,-8.978,-6.6251,1.817,45.8042,-1.2103,-0.2788,0.1394,0.0273
18:19:38:016,-8.4611,-6.579,3.392,45.977,-1.2423,-0.5015,0.149,0.0227
18:19:38:034,-7.934,-7.9301,4.0721,45.3277,-0.9376,-0.639,0.0756,0.0164
18:19:38:055,-8.0351,-8.418,3.356,45.1429,-0.3751,-0.3982,-0.243,0.0091
18:19:38:077,-9.258,-7.628,2.1641,44.9922,0.0989,0.0983,-0.4752,0.0021
18:19:38:098,-10.257,-6.369,1.6511,45.6302,0.2139,0.3465,-0.4346,-0.0035
18:19:38:115,-9.665,-5.253,1.728,44.9648,0.0371,0.1334,-0.2035,-0.0071
18:19:38:136,-7.9151,-4.4411,1.6061,44.896,-0.2878,-0.4323,-0.0395,-0.0092
18:19:38:158,-6.237,-3.56,1.625,44.2427,-0.5169,-0.8807,-0.0289,-0.0112
18:19:38:176,-5.37,-2.682,1.469,44.0807,-0.4263,-0.9233,-0.0799,-0.0146
18:19:38:196,-5.018,-2.0381,1.0271,44.6754,-0.1557,-0.5804,-0.0821,-0.0196
18:19:38:216,-4.712,-1.829,0.588,43.9148,0.1,-0.1265,-0.063,-0.0244
18:19:38:237,-4.692,-2.007,0.809,43.2274,0.2171,0.191,-0.1045,-0.0277
18:19:38:258,-5.25,-2.277,1.17,43.9738,0.2927,0.2474,-0.1811,-0.0289
18:19:38:275,-5.993,-2.715,0.878,43.9952,0.3492,0.2644,-0.2185,-0.0288
18:19:38:294,-6.7661,-3.1871,0.5141,43.968,0.3322,0.3358,-0.2504,-0.028
18:19:38:317,-7.905,-3.888,0.7391,43.9599,0.3259,0.5105,-0.2472,-0.0267
18:19:38:336,-8.688,-4.176,1.151,44.0435,0.3674,0.5936,-0.2355,-0.025
18:19:38:359,-9.519,-4.3721,0.77,43.2933,0.2918,0.5094,-0.1716,-0.0225
18:19:38:376,-9.8021,-5.291,0.524,43.9831,-0.0758,0.2251,-0.0512,-0.0195
18:19:38:396,-9.9071,-6.438,1.2611,43.9374,-0.5254,-0.1372,-0.0246,-0.0171
18:19:38:417,-9.663,-6.627,2.504,43.1567,-0.7415,-0.4153,-0.0778,-0.0165
18:19:38:437,-9.663,-5.945,3.332,43.6801,-0.6403,-0.5292,-0.1481,-0.0188
18:19:38:459,-10.383,-5.952,2.966,43.6463,-0.4763,-0.5697,-0.1023,-0.0233
18:19:38:476,-10.2371,-6.498,2.571,43.5173,-0.4412,-0.5899,-0.032,-0.0286
18:19:38:495,-9.83,-6.125,2.916,43.486,-0.3453,-0.5302,-0.0938,-0.0339
18:19:38:515,-10.47,-5.672,2.7311,43.4275,-0.078,-0.2777,-0.0949,-0.0392
18:19:38:537,-11.4251,-6.2951,2.628,43.4162,0.1522,0.1185,0.1097,-0.0437
18:19:38:560,-12.0551,-8.514,2.504,42.7979,0.2597,0.4306,0.3557,-0.0462
18:19:38:576,-11.4611,-9.9671,2.87,42.8885,0.181,0.4967,0.4612,-0.0458
18:19:38:596,-10.149,-9.84,3.6941,42.2864,0.069,0.2101,0.3557,-0.0429
18:19:38:615,-8.679,-7.9661,4.127,42.3653,0.1096,-0.1808,0.1735,-0.0392
18:19:38:637,-7.4411,-6.014,3.641,41.8966,0.3812,-0.3695,0.0543,-0.0361
18:19:38:658,-6.5171,-4.451,2.36,42.6468,0.7136,-0.3587,-0.015,-0.0339
18:19:38:675,-5.796,-3.342,0.96,41.9366,0.932,-0.2138,-0.0502,-0.0317
18:19:38:696,-5.514,-2.2841,-0.117,42.3125,0.9894,0.0258,-0.0534,-0.0285
18:19:38:715,-5.6861,-1.5131,-0.644,41.7455,0.9096,0.224,0.0415,-0.0241
18:19:38:735,-5.751,-1.3241,-0.7301,42.6449,0.7327,0.3443,0.2269,-0.0185
18:19:38:758,-5.715,-1.9751,-0.3131,42.0002,0.5122,0.3721,0.3952,-0.0119
18:19:38:776,-5.696,-3.05,0.371,41.829,0.329,0.3497,0.4836,-0.0047
18:19:38:796,-5.679,-4.221,1.1321,41.588,0.264,0.3465,0.4634,0.0023
18:19:38:815,-5.763,-4.889,1.742,41.876,0.3396,0.3636,0.3622,0.0091
18:19:38:835,-6.072,-5.172,1.4531,41.7112,0.4493,0.3773,0.246,0.0155
18:19:38:856,-6.8591,-5.739,0.7661,41.164,0.4377,0.4529,0.18,0.0217
18:19:38:876,-7.812,-7.283,0.4931,41.3618,0.3162,0.5947,0.1629,0.0278
18:19:38:897,-8.619,-8.921,0.725,41.2586,0.1735,0.7204,0.0799,0.0334
18:19:38:915,-8.801,-9.5291,0.9671,41.1477,-0.0001,0.7129,-0.1321,0.0385
18:19:38:936,-8.9471,-8.385,1.7021,40.3418,-0.1695,0.5287,-0.3835,0.0426
18:19:38:959,-10.029,-7.082,1.709,40.9585,-0.2526,0.2377,-0.472,0.0447
18:19:38:977,-10.925,-6.7931,0.768,40.9501,-0.4007,0.0247,-0.3164,0.0444
18:19:38:996,-10.494,-7.185,0.213,40.8484,-0.733,-0.0828,-0.114,0.0422
18:19:39:015,-9.1151,-6.17,1.515,40.7107,-1.0835,-0.2777,-0.0608,0.0387
18:19:39:037,-8.576,-5.72,3.002,41.1114,-1.2028,-0.5164,-0.0331,0.0337
18:19:39:058,-8.717,-6.6461,4.05,40.2763,-0.9706,-0.6592,-0.0022,0.0267
18:19:39:075,-8.624,-7.6811,3.5,40.9678,-0.3953,-0.461,-0.1236,0.0185
18:19:39:096,-9.119,-7.319,2.054,40.2028,0.0883,-0.0455,-0.309,0.0108
18:19:39:116,-9.51,-6.156,1.1771,40.2364,0.1884,0.193,-0.3207,0.0049
18:19:39:136,-8.892,-4.9151,1.3931,40.8502,-0.0044,0.0631,-0.1992,0.0011
18:19:39:157,-7.635,-3.9431,1.757,40.0526,-0.2292,-0.3385,-0.114,-0.0012
18:19:39:177,-6.3041,-2.8901,1.932,40.0593,-0.2921,-0.6336,-0.0969,-0.0034
18:19:39:197,-5.492,-2.217,1.632,40.0036,-0.1163,-0.6453,-0.1258,-0.0064
18:19:39:216,-5.114,-1.784,0.8921,39.3112,0.1383,-0.4153,-0.1503,-0.01
18:19:39:236,-4.98,-1.406,0.155,39.3242,0.3046,-0.0796,-0.1418,-0.0131
18:19:39:258,-5.114,-1.53,-0.225,39.2156,0.314,0.208,-0.1162,-0.0147
18:19:39:276,-5.375,-2.019,0.09,39.2583,0.2289,0.3571,-0.1077,-0.0147
18:19:39:296,-5.7101,-2.706,0.6101,40.0333,0.1787,0.4338,-0.129,-0.0138
18:19:39:315,-6.584,-3.51,1.007,39.2593,0.1543,0.4881,-0.1748,-0.0123
18:19:39:336,-7.635,-4.391,1.268,40.0016,0.1372,0.5009,-0.1929,-0.0107
18:19:39:357,-8.612,-5.27,1.4651,40.0122,0.1011,0.485,-0.2003,-0.009
18:19:39:376,-9.306,-5.859,1.74,39.9953,0.0531,0.4168,-0.1907,-0.0071
18:19:39:395,-9.84,-6.369,1.884,39.2793,-0.0374,0.2718,-0.177,-0.0056
18:19:39:416,-10.218,-6.8021,2.1401,40.0207,-0.1738,0.0546,-0.1642,-0.0046
18:19:39:436,-10.5971,-6.848,2.571,39.9752,-0.291,-0.2288,-0.162,-0.0046
18:19:39:461,-10.812,-6.488,2.7821,39.216,-0.3123,-0.5217,-0.1225,-0.0059
18:19:39:477,-10.644,-6.134,2.274,39.1987,-0.2676,-0.6975,-0.0395,-0.0085
18:19:39:496,-9.9881,-6.1871,2.0561,40.6256,-0.2452,-0.7103,0.0458,-0.012
18:19:39:516,-9.186,-5.756,2.4131,39.171,-0.1045,-0.6453,0.0095,-0.0159
18:19:39:535,-9.845,-5.3231,1.814,39.7361,0.2129,-0.3821,-0.0033,-0.0197
18:19:39:558,-10.391,-5.696,0.632,39.0037,0.3535,0.0109,0.1831,-0.0226
18:19:39:576,-11.004,-7.973,0.62,39.0062,0.2023,0.4253,0.4271,-0.0234
18:19:39:596,-10.295,-9.63,2.147,39.0914,-0.0087,0.5382,0.5049,-0.0218
18:19:39:616,-9.143,-9.824,3.3821,38.6054,-0.1269,0.2229,0.311,-0.0183
18:19:39:638,-7.781,-8.5361,3.6,39.161,-0.1972,-0.2991,0.0447,-0.0147
18:19:39:659,-6.7511,-6.6941,3.557,39.1507,-0.047,-0.593,-0.2217,-0.0128
18:19:39:676,-6.479,-4.781,2.4971,39.0473,0.3503,-0.5591,-0.4144,-0.0133
18:19:39:697,-6.5381,-2.775,0.7781,38.2874,0.6656,-0.2714,-0.4454,-0.0151
18:19:39:716,-7.068,-1.437,-0.3131,39.0073,0.6805,0.0802,-0.2589,-0.0165
18:19:39:736,-7.35,-1.011,-0.2051,38.4955,0.5133,0.2496,0.0723,-0.0162
18:19:39:756,-7.017,-1.41,0.4181,38.4275,0.3396,0.2496,0.4026,-0.014
18:19:39:776,-6.3971,-2.351,0.995,38.3142,0.1852,0.1046,0.6263,-0.0102
18:19:39:797,-5.885,-3.4961,1.2611,39.3404,0.0733,-0.0744,0.6988,-0.0053
18:19:39:815,-5.5571,-4.542,1.556,39.3381,0.0616,-0.1233,0.6572,-0.0004
18:19:39:836,-5.3531,-5.22,1.572,38.7236,0.165,-0.0573,0.5112,0.0043
18:19:39:859,-5.5901,-5.306,1.091,39.57,0.2885,0.1239,0.3355,0.0087
18:19:39:877,-6.4091,-5.921,0.7541,38.7991,0.3248,0.4093,0.2406,0.0131
18:19:39:896,-7.652,-7.3841,0.5861,38.7657,0.281,0.6277,0.1726,0.0177
18:19:39:916,-8.394,-9.101,0.38,38.6873,0.1352,0.7491,0.0415,0.0225
18:19:39:935,-8.8301,-9.678,0.7751,38.6358,-0.1216,0.7257,-0.2663,0.0271
18:19:39:956,-9.876,-8.2271,1.766,38.6976,-0.2824,0.5435,-0.5732,0.0304
18:19:39:975,-11.5691,-6.606,1.817,38.584,-0.308,0.2538,-0.5732,0.0313
18:19:39:996,-12.3161,-6.182,0.8711,38.5381,-0.4263,-0.0136,-0.2398,0.0297
18:19:40:016,-10.9631,-6.204,0.107,39.1155,-0.8066,-0.2661,0.0714,0.027
18:19:40:036,-9.17,-5.066,1.338,38.449,-1.1858,-0.5313,0.165,0.0233
18:19:40:056,-8.5091,-5.093,2.468,38.9329,-1.3157,-0.7391,0.2684,0.0182
18:19:40:078,-7.92,-7.001,3.564,39.3946,-1.0761,-0.7337,0.2716,0.0113
18:19:40:096,-7.6901,-8.2819,3.15,38.71,-0.4401,-0.33,-0.0309,0.0035
18:19:40:116,-8.585,-7.458,2.061,38.6646,0.0562,0.2058,-0.3697,-0.0037
18:19:40:136,-9.464,-6,1.956,38.0117,0.1778,0.4157,-0.3803,-0.0091
18:19:40:157,-8.909,-4.8941,2.114,38.655,0.0808,0.1174,-0.2589,-0.0125
18:19:40:177,-7.5221,-3.711,1.73,37.952,-0.078,-0.3992,-0.1811,-0.0144
18:19:40:197,-6.414,-2.751,0.9641,37.8865,-0.1812,-0.7103,-0.1523,-0.0163
18:19:40:216,-5.748,-2.004,0.45,37.8678,-0.1792,-0.6677,-0.1353,-0.0189
18:19:40:236,-5.384,-1.439,0.234,37.9699,-0.0917,-0.3545,-0.0832,-0.0223
18:19:40:256,-5.1401,-1.422,0.639,37.9687,0.0414,0.0344,-0.0085,-0.0255
18:19:40:276,-5.2361,-1.659,0.993,37.9687,0.1628,0.2399,0.001,-0.0274
18:19:40:297,-5.751,-1.968,0.785,37.9565,0.2001,0.3539,0.0287,-0.0278
18:19:40:315,-6.306,-2.61,0.8021,38.0577,0.1735,0.5169,0.1022,-0.0269
18:19:40:336,-6.756,-3.747,1.304,37.9083,0.1596,0.5915,0.1086,-0.0249
18:19:40:356,-7.2971,-4.722,1.826,37.962,0.1341,0.5371,0.033,-0.0221
18:19:40:376,-7.9751,-5.0111,2.2571,37.342,0.1448,0.3411,-0.0938,-0.019
18:19:40:396,-8.945,-5.4131,1.872,37.3297,0.1479,0.1484,-0.1364,-0.0162
18:19:40:416,-9.447,-6.096,1.4741,37.328,0.0329,-0.019,-0.1258,-0.0142
18:19:40:437,-9.818,-6.608,1.625,37.3262,-0.1386,-0.1734,-0.1546,-0.0132
18:19:40:461,-10.194,-6.407,2.171,37.3003,-0.2483,-0.3598,-0.1918,-0.0136
18:19:40:476,-10.577,-6.098,2.48,38.0291,-0.2793,-0.5878,-0.1811,-0.0155
18:19:40:498,-11.063,-6.309,2.157,38.066,-0.2941,-0.7444,-0.0938,-0.0186
18:19:40:518,-10.664,-6.615,2.1109,37.3021,-0.2941,-0.7657,-0.0033,-0.0225
18:19:40:536,-9.96,-5.835,2.231,37.3741,-0.1354,-0.6442,-0.0161,-0.0269
18:19:40:556,-10.5131,-6.0341,1.9481,38.1388,0.1235,-0.2555,0.0478,-0.0312
18:19:40:576,-11.442,-7.4081,1.9121,37.5541,0.3301,0.208,0.2109,-0.0343
18:19:40:596,-11.942,-9.2921,1.838,37.5822,0.3365,0.452,0.3696,-0.035
18:19:40:616,-10.752,-9.7181,2.588,37.5139,0.1372,0.3369,0.4218,-0.033
18:19:40:636,-8.9831,-8.981,3.509,36.2416,-0.0033,-0.0605,0.3003,-0.0293
18:19:40:656,-7.017,-7.25,3.983,36.769,0.1074,-0.4269,0.0873,-0.0258
18:19:40:677,-5.892,-5.2601,3.0311,36.9575,0.4984,-0.5239,-0.146,-0.0237
18:19:40:696,-5.2691,-3.6851,1.3571,36.3733,0.8382,-0.3108,-0.2845,-0.0226
18:19:40:716,-5.133,-2.3321,-0.0911,36.1327,0.965,0.0322,-0.3377,-0.0215
18:19:40:738,-5.514,-1.487,-0.567,36.4088,0.8723,0.3304,-0.2611,-0.0193
18:19:40:759,-5.772,-1.154,-0.15,35.8779,0.7018,0.4583,-0.0821,-0.0157
18:19:40:776,-5.8871,-1.3271,0.359,35.8006,0.5665,0.4605,0.1044,-0.0109
18:19:40:795,-6.009,-2.289,0.653,36.6488,0.4153,0.373,0.2716,-0.0054
18:19:40:816,-6.069,-3.7181,1.11,36.0256,0.2864,0.2868,0.3451,0.0004
18:19:40:836,-6.189,-4.808,1.505,36.4748,0.2629,0.2485,0.3142,0.0061
18:19:40:856,-6.359,-5.313,1.4981,36.0354,0.2981,0.2474,0.2343,0.0115
18:19:40:875,-7.0241,-5.744,1.163,36.009,0.3098,0.3198,0.1672,0.0165
18:19:40:896,-7.956,-6.9191,0.864,35.4821,0.246,0.4466,0.165,0.0212
18:19:40:915,-8.7791,-8.679,0.8471,35.9181,0.1202,0.5478,0.1107,0.0256
18:19:40:935,-9.0161,-9.6011,1.118,35.3134,-0.0322,0.5532,-0.0672,0.0296
18:19:40:957,-9.275,-8.811,1.73,35.8683,-0.1877,0.4136,-0.3036,0.0328
18:19:40:976,-9.6821,-7.032,2.027,35.0638,-0.242,0.1473,-0.4091,0.0344
18:19:40:996,-10.352,-6.314,1.151,34.2885,-0.2558,-0.021,-0.3217,0.0338
18:19:41:016,-10.632,-6.491,0.0431,34.2591,-0.4561,-0.0796,-0.1364,0.0316
18:19:41:036,-9.4399,-5.624,0.474,34.9046,-0.8524,-0.201,0.0095,0.0287
18:19:41:057,-8.858,-5.43,1.994,34.8553,-1.1315,-0.3875,0.1235,0.0248
18:19:41:077,-8.6171,-7.037,3.423,34.7937,-1.0803,-0.5558,0.1885,0.0194
18:19:41:097,-7.9391,-8.253,3.452,34.9374,-0.6605,-0.5015,-0.0107,0.0128
18:19:41:116,-8.667,-7.769,2.327,34.9636,-0.2218,-0.1361,-0.3036,0.0058
18:19:41:137,-9.27,-6.783,1.848,34.2671,-0.0641,0.1601,-0.3527,-0.0006
18:19:41:159,-8.825,-5.6771,2.001,34.282,-0.1173,0.1451,-0.2887,-0.0057
18:19:41:195,-7.6901,-4.518,2.2211,34.3866,-0.2537,-0.133,-0.2344,-0.0096
18:19:41:196,-6.833,-3.218,2.3,34.4842,-0.3453,-0.4323,-0.2259,-0.013
18:19:41:215,-6.237,-2.3231,2.276,33.7366,-0.2665,-0.5004,-0.1759,-0.0168
18:19:41:236,-5.8031,-1.7771,2.066,33.8428,-0.0322,-0.3332,-0.113,-0.0212
18:19:41:255,-5.495,-1.554,1.577,33.8428,0.2342,-0.0349,-0.0437,-0.025
18:19:41:276,-5.2001,-1.5851,1.187,33.1816,0.3908,0.2144,-0.0139,-0.0271
18:19:41:296,-5.478,-1.803,1.089,33.1406,0.4462,0.3167,-0.015,-0.027
18:19:41:316,-5.8871,-2.222,0.72,33.1091,0.4408,0.3613,0.0234,-0.0252
18:19:41:335,-6.297,-3.0821,0.632,33.0433,0.3641,0.4306,0.051,-0.0224
18:19:41:356,-6.864,-4.233,1.182,32.9765,0.3055,0.5031,0.018,-0.0188
18:19:41:375,-7.685,-4.968,1.4861,32.9578,0.3376,0.5276,-0.0576,-0.015
18:19:41:396,-8.456,-5.6771,1.3091,33.6181,0.2799,0.4828,-0.0864,-0.0111
18:19:41:416,-8.961,-6.4931,1.232,32.8845,0.0744,0.322,-0.1225,-0.0074
18:19:41:435,-9.534,-7.178,1.647,32.9537,-0.1493,0.1558,-0.1886,-0.0047
18:19:41:456,-10.242,-6.951,2.5091,32.9685,-0.2122,0.0236,-0.2515,-0.0035
18:19:41:477,-11.0591,-6.2201,2.7071,32.943,-0.1269,-0.1169,-0.1972,-0.0041
18:19:41:496,-11.619,-6.149,2.037,32.2755,-0.1078,-0.3022,0.0265,-0.0056
18:19:41:516,-10.788,-6.833,1.4531,32.9816,-0.2591,-0.4929,0.2226,-0.0071
18:19:41:538,-9.4399,-6.431,1.982,33.0831,-0.3549,-0.608,0.1757,-0.0086
18:19:41:556,-9.737,-6.237,2.2721,33.0665,-0.1546,-0.3928,0.1715,-0.0108
18:19:41:576,-10.283,-7.293,2.063,32.3357,0.1277,0.0344,0.2812,-0.0132
18:19:41:595,-10.8791,-9.182,1.7021,32.3245,0.2119,0.4093,0.3941,-0.0141
18:19:41:617,-10.3091,-10.214,2.643,32.3699,0.0681,0.4796,0.4228,-0.0128
18:19:41:636,-8.772,-9.4211,3.981,32.3478,0.0041,0.1163,0.2236,-0.0095
18:19:41:656,-7.194,-7.686,4.1681,32.3023,0.1437,-0.2852,-0.0085,-0.0062
18:19:41:677,-5.9951,-5.777,3.335,33.0969,0.492,-0.4088,-0.245,-0.0041
18:19:41:695,-5.427,-4.0751,1.898,32.3483,0.8871,-0.2384,-0.3835,-0.0031
18:19:41:716,-5.3441,-2.967,0.299,32.1008,1.0736,0.0918,-0.4261,-0.0022
18:19:41:736,-5.7551,-2.0981,-0.174,32.1697,1.013,0.356,-0.3644,-0.0002
18:19:41:756,-6.083,-1.5041,-0.038,32.1095,0.8957,0.485,-0.1642,0.0033
18:19:41:777,-5.906,-1.853,0.26,31.9531,0.753,0.5094,0.0723,0.0083
18:19:41:796,-5.408,-2.9141,0.5141,32.6511,0.5974,0.3784,0.2013,0.0144
18:19:41:815,-5.202,-4.128,0.5291,32.715,0.4558,0.2633,0.1735,0.021
18:19:41:837,-5.243,-4.767,0.785,32.1032,0.3865,0.2772,0.0586,0.0273
18:19:41:856,-5.751,-5.0831,0.969,32.6432,0.3717,0.3593,-0.0789,0.0328
18:19:41:877,-6.428,-5.433,1.2011,32.7919,0.3791,0.5105,-0.1481,0.0375
18:19:41:896,-7.482,-6.3161,1.266,31.9758,0.362,0.6468,-0.1811,0.0417
18:19:41:915,-8.957,-7.851,1.1651,31.9513,0.296,0.78,-0.1705,0.0456
18:19:41:936,-9.8351,-9.261,1.56,31.9641,0.2001,0.8386,-0.1972,0.0493
18:19:41:956,-10.19,-8.9501,2.058,33.3596,0.1022,0.6501,-0.3079,0.053
18:19:41:978,-10.3811,-7.4771,2.0201,32.6311,-0.0417,0.257,-0.3239,0.056
18:19:41:996,-10.8431,-6.68,1.374,31.9764,-0.209,-0.0967,-0.1886,0.0574
18:19:42:016,-11.262,-7.341,0.512,32.6694,-0.4667,-0.2564,0.0595,0.0572
18:19:42:036,-9.7151,-6.867,1.5101,32.6657,-0.7565,-0.3524,0.2215,0.0556
18:19:42:058,-8.4371,-6.17,2.7671,33.3579,-0.8066,-0.4918,0.2556,0.053
18:19:42:077,-8.09,-7.212,3.8801,33.2992,-0.5914,-0.56,0.2641,0.0492
18:19:42:096,-7.92,-8.397,3.3731,33.2705,-0.0246,-0.3704,0.0734,0.045
18:19:42:116,-8.667,-7.92,1.6061,32.6388,0.4527,0.0652,-0.1918,0.0414
18:19:42:136,-9.617,-6.6581,0.572,33.2507,0.4441,0.2676,-0.2237,0.0395
18:19:42:155,-9.0641,-5.607,0.713,33.2397,0.1522,0.1004,-0.0639,0.0395
18:19:42:177,-7.451,-4.731,1.086,33.2102,-0.1504,-0.2351,0.033,0.0403
18:19:42:196,-6.1511,-3.611,1.589,32.5349,-0.2665,-0.4557,0.0265,0.0404
18:19:42:216,-5.234,-2.6771,1.683,32.5837,-0.1343,-0.4301,0.0287,0.0395
18:19:42:237,-4.542,-2.1881,1.584,32.6057,0.1235,-0.2234,0.0106,0.0377
18:19:42:255,-4.1801,-1.9661,1.086,32.5907,0.4058,0.0353,-0.0374,0.0362
18:19:42:277,-4.451,-2.004,0.476,32.5384,0.5527,0.2559,-0.1023,0.0361
18:19:42:296,-5.0681,-2.354,0.177,31.9011,0.5368,0.3432,-0.1546,0.0377
18:19:42:315,-5.9831,-2.6891,-0.1001,32.5988,0.4323,0.3838,-0.1588,0.0404
18:19:42:336,-6.711,-3.398,0.11,32.617,0.2779,0.4477,-0.1216,0.0435
18:19:42:356,-7.3001,-4.3031,0.7631,32.6052,0.1363,0.4636,-0.1321,0.0466
18:19:42:377,-8.0321,-4.781,1.259,32.6081,0.0351,0.356,-0.227,0.0495
18:19:42:395,-9.392,-5.114,1.3931,32.5444,-0.1429,0.1834,-0.2749,0.0518
18:19:42:416,-10.4981,-5.7251,1.9391,33.2848,-0.3486,0.0514,-0.228,0.053
18:19:42:436,-11.6,-6.213,2.9681,33.2585,-0.4412,-0.0019,-0.1194,0.0528
18:19:42:455,-11.5931,-6.041,4.271,32.6164,-0.3783,-0.1297,0.0606,0.0513
18:19:42:476,-10.896,-5.4731,4.9481,33.2353,-0.1801,-0.4333,0.2406,0.0493
18:19:42:496,-9.953,-5.706,4.137,33.2346,0.0425,-0.7997,0.4185,0.0474
18:19:42:516,-8.5451,-6.4451,2.6351,33.2959,0.1479,-0.9713,0.4228,0.0459
18:19:42:536,-7.9151,-5.9951,1.7981,33.2544,0.264,-0.7912,0.2406,0.0448
18:19:42:556,-9.512,-5.9711,0.8231,33.2307,0.4536,-0.2203,0.1513,0.0437
18:19:42:578,-11.4011,-7.4441,0.414,33.0972,0.428,0.4903,0.3728,0.0435
18:19:42:597,-11.111,-9.338,1.733,33.0717,0.2395,1.0229,0.5954,0.0456
18:19:42:616,-10.19,-10.0061,3.9671,33.7688,0.0531,1.1081,0.5996,0.0506
18:19:42:636,-9.359,-9.953,5.837,33.1618,0.0371,0.6564,0.4804,0.0574
18:19:42:656,-8.466,-9.0649,5.652,33.138,0.2097,-0.1521,0.2747,0.0644
18:19:42:678,-6.864,-6.8501,3.299,33.0951,0.3248,-0.7252,0.0714,0.0701
18:19:42:696,-5.394,-4.8251,2.011,33.022,0.4547,-0.6655,-0.0906,0.0735
18:19:42:717,-4.937,-3.5801,1.0721,33.2612,0.7498,-0.1936,-0.2206,0.0747
18:19:42:736,-4.8671,-2.9021,0.488,33.5217,1.0087,0.4199,-0.2493,0.0755
18:19:42:755,-4.865,-2.519,0.4901,33.5142,1.0693,0.8034,-0.2408,0.0779
18:19:42:774,-4.9031,-2.15,1.0271,34.3419,1.0395,0.9185,-0.2057,0.0827
18:19:42:795,-5.19,-2.2151,1.319,33.8597,0.9874,0.8812,-0.1216,0.0896
18:19:42:814,-5.3651,-2.895,1.4651,33.6611,0.9756,0.879,-0.0256,0.0977
18:19:42:838,-5.454,-3.8981,1.4501,33.4101,0.9778,0.8898,0.001,0.1065
18:19:42:855,-5.9951,-4.6211,1.278,33.6416,0.9713,0.8844,-0.0693,0.1158
18:19:42:875,-6.627,-4.872,0.9761,33.5728,0.8701,0.8141,-0.0832,0.1254
18:19:42:895,-7.3931,-5.753,0.6101,34.5303,0.6582,0.7033,-0.063,0.1347
18:19:42:915,-8.504,-7.305,0.629,34.5271,0.4089,0.6436,-0.0374,0.1432
18:19:42:937,-9.438,-8.61,1.046,34.474,0.2332,0.6171,-0.0639,0.1505
18:19:42:956,-10.005,-9.2681,1.388,34.5625,0.084,0.5074,-0.1449,0.1564
18:19:42:976,-9.795,-8.251,1.898,34.5582,-0.0672,0.1919,-0.2194,0.1608
18:19:42:995,-9.476,-7.176,1.367,34.4856,-0.1035,-0.1159,-0.243,0.1633
18:19:43:016,-9.608,-7.13,0.074,34.2791,-0.2569,-0.2863,-0.2344,0.1636
18:19:43:035,-9.8021,-7.077,-0.593,34.277,-0.6148,-0.3044,-0.1875,0.1621
18:19:43:056,-9.069,-5.7971,0.6941,34.8612,-1.009,-0.3715,-0.129,0.1589
18:19:43:078,-8.5901,-5.3801,2.391,34.7037,-1.1869,-0.5313,-0.0341,0.154
18:19:43:096,-8.384,-6.785,3.947,34.6673,-0.9589,-0.5921,0.0052,0.1472
18:19:43:117,-8.0231,-8.1431,3.641,34.6749,-0.3389,-0.363,-0.2067,0.1393
18:19:43:136,-8.5301,-7.427,2.379,34.6897,0.2278,0.1217,-0.5253,0.1319
18:19:43:156,-9.572,-6.101,1.434,34.6607,0.459,0.4572,-0.5913,0.1261
18:19:43:178,-9.239,-4.892,1.331,34.6382,0.3589,0.4498,-0.4272,0.1226
18:19:43:207,-7.932,-3.9671,1.628,33.8809,0.1469,0.1547,-0.2856,0.1214
18:19:43:215,-6.8711,-3.1271,1.841,33.8839,0.0095,-0.1435,-0.2131,0.1212
18:19:43:236,-6.0161,-2.562,1.8191,34.65,0.019,-0.264,-0.1557,0.1207
18:19:43:256,-5.3801,-2.421,1.659,34.7012,0.1565,-0.1723,-0.1418,0.1195
18:19:43:277,-5.042,-2.268,1.517,34.6509,0.3609,0.0631,-0.1684,0.1182
18:19:43:297,-4.949,-2.114,1.314,34.037,0.5761,0.3241,-0.1844,0.1177
18:19:43:316,-5.246,-2.3441,1.007,34.8669,0.6923,0.5222,-0.1907,0.1187
18:19:43:336,-5.844,-2.754,0.864,34.8554,0.6869,0.5915,-0.1737,0.1212
18:19:43:356,-6.2441,-3.309,0.95,34.8386,0.6039,0.5893,-0.1418,0.1251
18:19:43:377,-6.7511,-4.049,1.1771,34.2561,0.5272,0.5521,-0.1386,0.1297
18:19:43:397,-7.3331,-5.0231,1.4891,34.2342,0.459,0.4722,-0.1801,0.1346
18:19:43:417,-8.205,-5.852,1.4381,34.2339,0.4132,0.4093,-0.2589,0.1391
18:19:43:436,-8.889,-6.362,1.589,35.0895,0.3194,0.3858,-0.2887,0.143
18:19:43:456,-9.5651,-6.6371,1.9961,35.0902,0.2108,0.3156,-0.3121,0.1459
18:19:43:478,-10.338,-6.644,2.8271,35.0916,0.1352,0.1825,-0.2984,0.148
18:19:43:496,-10.9031,-6.086,3.4181,34.4998,0.1448,-0.1094,-0.2014,0.1493
18:19:43:516,-11.387,-6.134,2.829,34.4911,0.1448,-0.4994,-0.0011,0.1497
18:19:43:536,-10.848,-7.001,1.709,34.504,-0.0183,-0.8189,0.1726,0.1494
18:19:43:555,-9.419,-6.759,1.836,34.4764,-0.1121,-0.8744,0.1629,0.148
18:19:43:578,-9.285,-6.266,1.7711,34.4795,0.0818,-0.5131,0.0927,0.1455
18:19:43:597,-10.235,-7.271,2.037,34.4237,0.4291,0.1973,0.1704,0.1425
18:19:43:616,-11.198,-9.0221,2.0419,33.9605,0.639,0.7332,0.3142,0.1415
18:19:43:637,-11.303,-10.6331,2.762,34.0657,0.5463,0.8119,0.4484,0.1441
18:19:43:656,-9.84,-10.64,3.737,33.6018,0.3737,0.3486,0.3589,0.15
18:19:43:678,-8.109,-8.751,3.7301,33.5635,0.312,-0.2703,0.1502,0.1569
18:19:43:697,-6.759,-6.96,3.0071,33.0834,0.4814,-0.5463,-0.015,0.1622
18:19:43:717,-5.633,-5.483,1.587,33.5551,0.8158,-0.4153,-0.1705,0.1651
18:19:43:737,-5.114,-4.034,-0.05,34.6701,1.0682,0.0023,-0.3207,0.1664
18:19:43:757,-5.2931,-2.5931,-0.9401,34.1678,1.0588,0.3849,-0.3484,0.168
18:19:43:778,-5.576,-1.652,-0.7661,33.5725,0.8564,0.5456,-0.2194,0.1709
18:19:43:796,-5.693,-1.542,-0.165,33.5444,0.6625,0.5307,-0.0298,0.1754
18:19:43:816,-5.7221,-1.98,0.332,33.0856,0.492,0.4019,0.1394,0.1808
18:19:43:837,-5.552,-2.7461,0.636,33.0533,0.3589,0.2698,0.2577,0.1867
18:19:43:856,-5.5691,-3.587,0.938,32.9866,0.3066,0.2633,0.2844,0.1923
18:19:43:877,-6.002,-4.322,1.211,34.1454,0.3567,0.3816,0.2727,0.1975
18:19:43:897,-6.7421,-5.148,1.1411,33.7509,0.4025,0.5052,0.2801,0.2027
18:19:43:916,-7.482,-6.2831,0.785,33.6744,0.3301,0.5617,0.3057,0.2084
18:19:43:936,-8.195,-7.824,0.83,32.9482,0.1554,0.6479,0.311,0.2145
18:19:43:957,-8.573,-9.0101,1.388,32.9157,-0.0012,0.6468,0.2278,0.2206
18:19:43:982,-8.8301,-9.512,2.0681,32.8415,-0.0758,0.5712,0.0606,0.2264
18:19:43:997,-9.1241,-8.8781,2.2601,33.244,-0.0683,0.373,-0.1247,0.2314
18:19:44:016,-9.629,-7.8941,1.4171,32.7726,-0.0832,0.1845,-0.195,0.2348
18:19:44:038,-10.3601,-7.8101,0.253,31.844,-0.2846,0.0344,-0.1557,0.2367
18:19:44:057,-9.68,-7.326,-0.0401,32.3364,-0.7245,-0.1287,-0.0619,0.237
18:19:44:077,-7.9871,-5.639,1.647,32.8583,-1.1368,-0.3992,-0.063,0.2358
18:19:44:097,-7.649,-5.528,3.308,31.9076,-1.1762,-0.608,-0.0298,0.2322
18:19:44:116,-7.6901,-7.377,3.746,32.3598,-0.7767,-0.575,-0.1034,0.2261
18:19:44:136,-8.14,-8.0261,2.631,32.3086,-0.2057,-0.1478,-0.3953,0.2188
18:19:44:157,-9.546,-6.984,1.9031,31.4325,0.1394,0.3443,-0.5881,0.2118
18:19:44:178,-10.3121,-5.751,1.898,32.2843,0.1682,0.4785,-0.4432,0.2066
18:19:44:196,-9.3401,-5.243,2.286,30.8916,0.001,0.1675,-0.1972,0.2038
18:19:44:216,-7.4291,-4.554,2.25,31.2596,-0.1716,-0.3193,-0.1418,0.2025
18:19:44:236,-6.471,-3.275,1.9121,31.2892,-0.2111,-0.6038,-0.2142,0.2009
18:19:44:258,-5.964,-2.145,1.541,31.1495,-0.1248,-0.6144,-0.1992,0.1979
18:19:44:278,-5.475,-1.4801,1.094,31.1754,0.0456,-0.3769,-0.1204,0.1938
18:19:44:297,-5.0471,-1.451,0.8711,30.8122,0.247,0.0023,-0.0534,0.19
18:19:44:315,-5.0951,-1.659,0.842,30.7752,0.4036,0.3156,-0.0619,0.1877
18:19:44:336,-5.717,-2.0741,0.818,30.1468,0.4696,0.4625,-0.0608,0.1876
18:19:44:356,-6.354,-2.7221,0.78,30.3067,0.4408,0.5083,-0.032,0.1895
18:19:44:377,-7.137,-3.599,0.7661,30.3067,0.3706,0.5159,-0.015,0.1926
18:19:44:394,-7.7591,-4.1899,1.149,30.2956,0.246,0.4679,-0.0065,0.1965
18:19:44:415,-8.777,-4.518,1.4141,30.2998,0.0701,0.2761,0.0159,0.2006
18:19:44:434,-9.603,-5.39,1.92,30.5338,-0.2654,-0.0232,0.1266,0.2045
18:19:44:455,-9.8351,-6.6971,3.126,29.6343,-0.4848,-0.2937,0.2045,0.2072
18:19:44:477,-9.8111,-7.377,4.175,30.3408,-0.4433,-0.4696,0.1544,0.208
18:19:44:496,-9.555,-6.9671,4.4261,29.8662,-0.1951,-0.5292,0.1075,0.2068
18:19:44:515,-9.2561,-6.9701,4.094,28.8851,0.1405,-0.4153,0.0958,0.2044
18:19:44:535,-8.8661,-7.638,3.011,28.8746,0.3205,-0.363,-0.0043,0.202
18:19:44:556,-8.664,-7.3721,2.9801,29.2511,0.4345,-0.2309,-0.2313,0.2002
18:19:44:577,-9.7541,-6.512,2.805,28.3097,0.785,0.0876,-0.3772,0.1989
18:19:44:595,-11.0591,-6.333,1.568,27.8252,1.0566,0.4807,-0.2259,0.1984
18:19:44:615,-11.954,-7.602,0.6,27.6752,0.9277,0.7726,0.1055,0.2
18:19:44:635,-11.616,-9.3281,1.314,27.6462,0.524,0.7608,0.4345,0.2046
18:19:44:656,-9.428,-9.977,2.777,28.9403,0.1778,0.3517,0.4335,0.2115
18:19:44:678,-7.439,-9.0311,3.402,27.6083,0.0659,-0.102,0.1831,0.2188
18:19:44:697,-6.242,-7.5011,3.212,27.8627,0.2267,-0.2342,-0.0619,0.2241
18:19:44:716,-5.504,-6.134,2.504,27.4431,0.5303,-0.0509,-0.243,0.2269
18:19:44:737,-4.709,-4.485,1.7741,27.4493,0.8499,0.2527,-0.3942,0.2282
18:19:44:756,-4.494,-2.856,0.993,28.1218,1.0139,0.4434,-0.5093,0.2296
18:19:44:778,-4.884,-1.7261,0.5,28.1014,1.03,0.5233,-0.4943,0.2319
18:19:44:796,-5.351,-1.181,0.138,28.1555,1.0054,0.6032,-0.342,0.2354
18:19:44:815,-5.8301,-1.623,-0.227,27.9538,0.9394,0.7332,-0.1321,0.2402
18:19:44:836,-6.273,-2.576,-0.1601,27.8546,0.8009,0.8781,0.0521,0.2461
18:19:44:856,-6.804,-3.867,0.584,26.5451,0.6145,0.9003,0.1831,0.2533
18:19:44:878,-6.962,-4.973,1.407,27.0192,0.4291,0.7321,0.2534,0.2615
18:19:44:895,-6.7781,-5.5451,1.905,26.4932,0.2927,0.4657,0.2503,0.27
18:19:44:917,-6.771,-6.149,1.967,26.4803,0.2129,0.2772,0.2045,0.2765
18:19:44:935,-7.448,-7.2761,1.716,26.8682,0.1969,0.2346,0.1299,0.2808
18:19:44:956,-8.6569,-8.5451,1.067,26.8703,0.1532,0.3113,0.0404,0.2835
18:19:44:978,-9.555,-9.0979,1.034,26.8647,-0.0289,0.3912,-0.0033,0.2853
18:19:44:995,-9.4571,-8.777,2.1851,25.9058,-0.1983,0.2783,-0.0417,0.2868
18:19:45:016,-9.459,-7.652,2.118,25.9117,-0.2111,-0.0253,-0.0789,0.2876
18:19:45:035,-9.5411,-7.841,0.5021,26.2382,-0.3165,-0.1893,-0.0161,0.287
18:19:45:056,-9.0911,-7.796,0.2171,25.2887,-0.6181,-0.1915,-0.0022,0.2853
18:19:45:080,-8.396,-6.4451,1.635,25.7108,-0.7853,-0.1873,-0.0267,0.283
18:19:45:096,-8.351,-6.3761,3.026,24.8289,-0.7022,-0.1915,0.0276,0.2798
18:19:45:116,-8.619,-7.6451,3.608,24.7842,-0.3825,-0.2043,0.0137,0.2759
18:19:45:137,-8.8631,-8.433,2.667,24.7919,0.0137,-0.1222,-0.1566,0.2721
18:19:45:156,-9.5741,-7.7651,1.599,24.7681,0.1702,-0.0562,-0.3186,0.2677
18:19:45:176,-9.536,-6.342,0.9281,24.752,0.0883,-0.1393,-0.2887,0.263
18:19:45:196,-8.399,-5.0111,0.837,24.7692,-0.0896,-0.2683,-0.1833,0.2597
18:19:45:235,-6.969,-3.6971,1.077,24.7841,-0.1801,-0.3609,-0.1364,0.258
18:19:45:237,-6.143,-2.7341,1.0601,23.8301,-0.1578,-0.3449,-0.0895,0.2569
18:19:45:255,-5.444,-2.375,0.9791,23.8143,-0.0865,-0.199,-0.017,0.256
18:19:45:275,-4.764,-2.349,1.074,24.2216,-0.0033,-0.0285,-0.0022,0.2554
18:19:45:295,-4.4891,-2.445,1.086,23.8289,0.0733,0.1078,-0.0384,0.2555
18:19:45:316,-4.566,-2.612,1.194,23.8564,0.1383,0.2388,-0.098,0.2565
18:19:45:336,-5.0111,-2.823,1.3211,24.2177,0.2247,0.355,-0.1642,0.2577
18:19:45:357,-5.688,-3.1841,1.235,24.2256,0.2833,0.4401,-0.195,0.2592
18:19:45:378,-6.474,-3.9821,1.259,24.2203,0.3174,0.5191,-0.2206,0.2611
18:19:45:396,-7.233,-4.578,1.187,24.2366,0.3194,0.5339,-0.2621,0.2636
18:19:45:416,-7.9151,-4.7501,1.0511,24.6761,0.2214,0.4818,-0.2813,0.2664
18:19:45:437,-8.7311,-5.552,1.209,25.1244,0.0371,0.4071,-0.2461,0.2694
18:19:45:456,-9.299,-6.5651,1.814,24.7895,-0.1376,0.2857,-0.2291,0.2726
18:19:45:480,-9.933,-7.235,2.547,25.1677,-0.2111,0.1632,-0.2504,0.2753
18:19:45:497,-10.4051,-7.089,3.512,23.87,-0.1727,-0.0626,-0.2802,0.2759
18:19:45:517,-10.908,-6.462,3.153,24.3188,-0.0641,-0.4141,-0.2174,0.2749
18:19:45:537,-10.764,-7.0631,1.692,25.6421,-0.1078,-0.639,-0.0736,0.2728
18:19:45:557,-9.668,-7.425,1.551,25.6563,-0.2122,-0.5952,-0.0693,0.2704
18:19:45:579,-9.608,-6.864,2.054,24.311,-0.0001,-0.249,-0.1833,0.267
18:19:45:598,-10.532,-6.6971,1.9361,24.3235,0.3567,0.2943,-0.1236,0.2634
18:19:45:616,-11.595,-7.956,1.529,25.6125,0.4185,0.6043,0.0564,0.2614
18:19:45:636,-11.363,-9.0101,2.1881,25.6575,0.1724,0.5424,0.2109,0.2622
18:19:45:656,-10.247,-8.648,3.4181,26.1237,-0.0129,0.2399,0.2152,0.2653
18:19:45:675,-9.0401,-7.901,4.031,26.1237,0.0329,-0.0221,0.1981,0.2688
18:19:45:696,-7.4171,-6.903,3.8711,26.6378,0.3556,-0.0785,0.1257,0.2716
18:19:45:715,-6.354,-5.708,2.7311,26.2496,0.7435,0.0481,0.017,0.2737
18:19:45:735,-5.5541,-4.31,1.23,27.6043,0.9511,0.2058,-0.0395,0.2757
18:19:45:755,-5.183,-3.225,0.315,27.2558,0.8564,0.2922,-0.0417,0.2784
18:19:45:775,-5.0231,-2.55,0.294,27.8244,0.6295,0.2463,0.0223,0.2826
18:19:45:797,-4.7621,-2.435,0.7391,27.5046,0.4834,0.1899,0.0958,0.2883
18:19:45:815,-4.728,-2.576,1.11,27.5046,0.4866,0.1953,0.1309,0.2947
18:19:45:835,-5.073,-2.847,1.1651,28.0942,0.5783,0.2772,0.164,0.3012
18:19:45:855,-5.772,-3.3881,1.022,27.7898,0.6358,0.3773,0.2289,0.3069
18:19:45:875,-6.332,-4.449,1.019,28.6215,0.6156,0.4093,0.3238,0.3125
18:19:45:897,-6.632,-5.615,0.96,29.2376,0.5622,0.3773,0.3525,0.3185
18:19:45:915,-7.1111,-6.692,0.84,28.3711,0.5144,0.3508,0.3249,0.3248
18:19:45:935,-7.575,-7.848,0.284,28.98,0.426,0.3475,0.2695,0.3306
18:19:45:955,-8.5421,-8.952,0.107,28.98,0.2395,0.421,0.164,0.3358
18:19:45:975,-9.2771,-9.678,0.723,29.6098,0.0488,0.4668,0.0734,0.3404
18:19:45:996,-9.258,-9.105,1.527,28.98,-0.0715,0.305,-0.0522,0.3445
18:19:46:017,-9.447,-7.535,1.1561,29.6098,-0.1354,0.0023,-0.1375,0.3475
18:19:46:036,-10.149,-7.329,-0.0911,28.8016,-0.3475,-0.201,-0.0544,0.3488
18:19:46:055,-9.644,-6.984,-0.074,29.6098,-0.7565,-0.3022,0.0862,0.3485
18:19:46:075,-8.511,-6.194,1.577,29.6098,-1.0292,-0.4269,0.1693,0.3469
18:19:46:095,-7.9751,-6.5081,3.2321,28.98,-0.9695,-0.543,0.2056,0.3433
18:19:46:115,-7.7,-7.8011,3.708,28.98,-0.4763,-0.477,0.0586,0.3374
18:19:46:135,-8.435,-7.7051,2.358,28.8016,0.132,-0.1276,-0.2302,0.3306
18:19:46:156,-10.0121,-7.032,0.9671,28.8016,0.3674,0.2047,-0.2856,0.324
18:19:46:175,-10.2371,-6.204,0.845,28.8016,0.1693,0.1601,-0.0799,0.3195
18:19:46:197,-8.6569,-5.651,1.2281,28.1537,-0.1855,-0.2885,0.1266,0.3181
18:19:46:216,-6.771,-4.892,1.539,28.1537,-0.4498,-0.7561,0.1374,0.318
18:19:46:238,-5.6141,-3.8171,1.4981,27.5202,-0.4231,-0.919,0.0553,0.3155
18:19:46:255,-4.925,-2.9021,1.07,28.3711,-0.2196,-0.753,-0.0033,0.3105
18:19:46:276,-4.5611,-2.4371,0.651,27.2849,0.0095,-0.4045,-0.0363,0.3048
18:19:46:299,-4.3361,-2.3441,0.572,27.2849,0.2108,-0.0562,-0.081,0.3005
18:19:46:315,-4.604,-2.279,0.4211,27.2849,0.3387,0.1451,-0.1429,0.298
18:19:46:335,-4.7621,-2.3681,0.15,27.2849,0.2651,0.0876,-0.1438,0.2974
18:19:46:356,-5.111,-2.981,0.021,28.1311,-0.0385,-0.1947,-0.1705,0.2976
18:19:46:375,-5.846,-3.785,0.45,28.1311,-0.3091,-0.3832,-0.2237,0.2973
18:19:46:396,-6.816,-4.877,0.861,26.6617,-0.3304,-0.2586,-0.2696,0.2954
18:19:46:415,-7.9841,-5.694,1.1921,27.2849,-0.1429,0.1621,-0.3356,0.2922
18:19:46:436,-9.636,-6.512,1.577,27.9137,0.0329,0.6021,-0.3345,0.2892
18:19:46:457,-10.541,-7.25,2.408,27.9137,0.0126,0.7013,-0.2654,0.2886
18:19:46:475,-10.503,-7.611,3.497,27.9137,-0.0694,0.4316,-0.2526,0.2904
18:19:46:496,-10.2851,-7.1231,3.756,27.9137,-0.1099,-0.1074,-0.3356,0.292
18:19:46:516,-10.5821,-6.177,2.87,27.2849,-0.1738,-0.5984,-0.374,0.292
18:19:46:536,-11.135,-6.2831,1.9001,27.5202,-0.2441,-0.7487,-0.3026,0.2898
18:19:46:555,-10.685,-5.9861,1.896,26.9157,-0.1983,-0.5686,-0.2163,0.2854
18:19:46:575,-10.431,-5.531,1.836,27.2849,0.0308,-0.1691,-0.1258,0.28
18:19:46:597,-10.757,-6.134,2.051,27.2849,0.2586,0.3304,0.0223,0.2752
18:19:46:616,-11.43,-7.257,1.862,27.6963,0.3418,0.5712,0.1768,0.273
18:19:46:635,-11.375,-8.559,2.073,27.6963,0.1554,0.6,0.3781,0.2739
18:19:46:655,-10.0001,-9.2081,3.3131,26.8953,-0.0322,0.3795,0.3866,0.2773
18:19:46:677,-8.403,-7.9541,3.9551,27.6963,-0.0214,0.0088,0.2119,0.2818
18:19:46:697,-7.137,-5.928,3.531,28.1809,0.1585,-0.2437,0.0723,0.2856
18:19:46:715,-6.251,-4.374,2.415,28.1809,0.3791,-0.2501,0.0117,0.2874
18:19:46:736,-5.772,-3.23,1.5701,28.1809,0.5793,-0.0551,0.0052,0.2875
18:19:46:755,-5.657,-2.445,1.091,28.0153,0.7307,0.2101,0.0808,0.2881
18:19:46:775,-5.226,-2.148,1.005,28.0153,0.8148,0.3912,0.1991,0.2912
18:19:46:797,-4.9151,-2.114,0.7991,27.8732,0.8265,0.4114,0.2738,0.2969
18:19:46:816,-4.839,-2.552,0.483,28.4517,0.7221,0.3454,0.329,0.3045
18:19:46:835,-5.018,-3.218,0.6,28.3615,0.5868,0.3092,0.3483,0.3127
18:19:46:855,-5.435,-4.13,0.8021,28.3615,0.4994,0.3059,0.344,0.3201
18:19:46:876,-6.098,-5.217,0.7271,28.3615,0.4249,0.3517,0.3099,0.3268
18:19:46:897,-6.917,-6.2561,0.849,28.3085,0.3226,0.419,0.2599,0.3331
18:19:46:916,-7.3481,-6.675,1.0361,28.3085,0.1958,0.3784,0.2321,0.3389
18:19:46:936,-7.472,-7.137,0.993,28.3085,0.0403,0.2644,0.1939,0.344
18:19:46:956,-7.877,-8.289,0.7151,27.5908,-0.1397,0.1919,0.1277,0.3482
18:19:46:977,-8.145,-9.7421,0.7271,27.5045,-0.3208,0.2815,-0.0608,0.3513
18:19:46:997,-8.633,-9.278,2.106,29.031,-0.4038,0.3389,-0.3761,0.3533
18:19:47:015,-9.6131,-7.698,2.5421,29.031,-0.2133,0.2431,-0.5082,0.353
18:19:47:036,-10.077,-7.065,1.062,28.3249,-0.1514,0.0961,-0.4304,0.3505
18:19:47:056,-9.8261,-6.462,-0.2171,24.726,-0.4615,-0.0733,-0.3058,0.3472
18:19:47:076,-9.5411,-5.909,0.4421,23.9043,-0.943,-0.2256,-0.1438,0.3441
18:19:47:097,-9.275,-6.579,2.561,24.0139,-1.1155,-0.3652,0.0106,0.3402
18:19:47:116,-9.0401,-7.877,3.852,23.3955,-0.8321,-0.3758,0.0137,0.3355
18:19:47:136,-8.858,-8.064,3.758,23.5162,-0.275,-0.2512,-0.162,0.3303
18:19:47:156,-9.383,-6.989,2.396,24.5218,0.1458,-0.052,-0.2493,0.3255
18:19:47:175,-9.117,-6.137,1.29,23.4033,0.181,-0.0264,-0.1258,0.3218
18:19:47:197,-7.673,-5.4971,1.103,22.848,-0.0055,-0.1713,-0.048,0.3194
18:19:47:216,-6.474,-4.37,1.278,23.1368,-0.1206,-0.3843,-0.0917,0.3178
18:19:47:250,-5.6051,-3.132,1.1681,23.0393,-0.1002,-0.477,-0.129,0.3154
18:19:47:255,-5.174,-2.234,0.7511,22.5602,-0.0151,-0.4375,-0.1481,0.3126
18:19:47:276,-4.994,-1.748,0.323,22.7242,0.0818,-0.2757,-0.1055,0.3096
18:19:47:297,-5.001,-1.779,-0.059,22.7523,0.1277,-0.0785,-0.0704,0.3069
18:19:47:316,-5.303,-2.0711,0.026,22.6983,0.1,0.0652,-0.0502,0.3056
18:19:47:337,-5.76,-2.514,0.411,22.6554,0.0829,0.1792,-0.0278,0.3053
18:19:47:356,-6.467,-3.347,0.6461,22.6321,0.0766,0.2846,0.001,0.3056
18:19:47:376,-7.1801,-4.4891,1.1891,21.7419,0.0436,0.3625,0.0106,0.3065
18:19:47:398,-7.7951,-5.081,1.9031,21.7337,0.0883,0.3497,-0.0331,0.3081
18:19:47:415,-8.42,-5.5691,1.661,21.6738,0.1287,0.2431,-0.0693,0.3104
18:19:47:435,-8.928,-6.3071,1.376,21.7093,0.0201,0.128,-0.1002,0.3129
18:19:47:456,-9.409,-6.678,1.707,21.1044,-0.1301,0.0268,-0.1557,0.3151
18:19:47:476,-10.091,-6.776,2.475,21.4653,-0.2142,-0.1415,-0.1896,0.3158
18:19:47:499,-10.659,-6.5651,2.928,21.4484,-0.2068,-0.413,-0.1737,0.3148
18:19:47:515,-11.207,-6.884,2.205,21.2052,-0.1759,-0.6453,-0.0884,0.3127
18:19:47:535,-10.532,-7.3601,1.5341,21.2246,-0.2335,-0.6475,0.0191,0.3096
18:19:47:557,-9.569,-7.623,1.802,21.2474,-0.1759,-0.4141,-0.0384,0.3059
18:19:47:576,-9.9431,-8.1311,1.7711,21.2981,0.0925,0.0727,-0.1662,0.3019
18:19:47:598,-11.775,-8.4401,1.718,21.1026,0.3461,0.5851,-0.2014,0.2988
18:19:47:616,-13.178,-8.7559,1.5941,21.7795,0.3003,0.7991,0.0447,0.298
18:19:47:636,-11.8391,-9,2.925,20.9974,-0.0066,0.5222,0.3483,0.3001
18:19:47:658,-9.2681,-8.6501,4.2011,21.9287,-0.1429,-0.1148,0.3813,0.304
18:19:47:676,-6.7631,-7.1831,3.806,21.9048,0.084,-0.5952,0.2141,0.3076
18:19:47:699,-5.6291,-5.54,2.1851,21.4153,0.3823,-0.705,0.0202,0.3088
18:19:47:718,-4.9271,-4.02,0.5291,22.4828,0.6539,-0.4514,-0.081,0.3069
18:19:47:736,-4.695,-2.603,-0.974,21.3493,0.7754,0.0099,-0.0799,0.3038
18:19:47:756,-4.733,-1.7261,-1.398,22.9044,0.6412,0.419,0.0393,0.3027
18:19:47:778,-4.8941,-1.6331,-0.512,22.7754,0.3492,0.5276,0.2034,0.3047
18:19:47:799,-4.8101,-2.198,0.4421,22.4964,0.1042,0.3986,0.3611,0.3092
18:19:47:816,-4.542,-3.278,1.007,22.3643,-0.0694,0.2271,0.4133,0.3147
18:19:47:835,-4.515,-4.257,1.56,21.2931,-0.1248,0.1515,0.3461,0.3198
18:19:47:856,-5.147,-5.093,1.8431,22.2587,-0.0587,0.2005,0.2098,0.3239
18:19:47:876,-6.182,-5.5211,2.087,22.1336,0.0286,0.2612,0.1075,0.3272
18:19:47:898,-6.792,-5.7101,2.08,22.0126,0.1266,0.2772,0.0927,0.3302
18:19:47:915,-7.455,-6.623,1.5491,21.8784,0.1915,0.3475,0.0916,0.3327
18:19:47:935,-8.463,-8.112,1.151,22.5262,0.1713,0.469,0.0575,0.3349
18:19:47:956,-9.4451,-9.278,1.2641,22.484,0.0979,0.6117,-0.017,0.3364
18:19:47:976,-9.72,-9.309,1.9121,22.3308,-0.0246,0.5382,-0.1225,0.338
18:19:47:999,-9.572,-7.1441,1.4051,22.6989,-0.1664,-0.1723,-0.2526,0.3392
18:19:48:017,-10.067,-6.7661,0.402,21.7839,-0.3176,-0.2768,-0.243,0.3389
18:19:48:037,-10.065,-5.516,0.1841,21.6525,-0.6148,-0.3875,-0.1173,0.3368
18:19:48:057,-9.581,-4.7981,1.007,23.0458,-0.961,-0.4844,0.149,0.3338
18:19:48:076,-8.94,-6.378,2.93,22.8469,-1.0345,-0.5878,0.3121,0.3301
18:19:48:098,-8.514,-8.337,3.7391,22.269,-0.6298,-0.5217,0.1896,0.3258
18:19:48:116,-8.8541,-8.334,3.0311,23.7323,-0.0076,-0.1734,-0.1418,0.3214
18:19:48:136,-10.0241,-6.96,2.0681,22.9355,0.3589,0.1717,-0.2313,0.3162
18:19:48:157,-9.8471,-5.861,1.4141,22.4782,0.3387,0.1345,-0.0469,0.3113
18:19:48:177,-8.2931,-5.064,1.1771,21.4149,0.0818,-0.1915,0.1086,0.308
18:19:48:198,-6.845,-4.2041,1.127,22.6244,-0.1673,-0.5676,0.132,0.3073
18:19:48:218,-5.796,-3.2201,1.101,22.7627,-0.242,-0.7156,0.116,0.3076
18:19:48:236,-5.1431,-2.4521,0.9191,23.9125,-0.1664,-0.5973,0.1107,0.3071
18:19:48:256,-4.604,-2.011,1.0511,24.0365,-0.0098,-0.3193,0.1363,0.3063
18:19:48:276,-4.386,-2.03,1.1801,22.8349,0.2023,-0.0327,0.1118,0.3054
18:19:48:300,-4.956,-2.184,1.187,22.7881,0.3919,0.1536,0.0649,0.3052
18:19:48:317,-5.574,-2.5961,0.66,22.81,0.4302,0.2197,0.0916,0.3061
18:19:48:336,-5.942,-3.438,0.548,23.2471,0.3503,0.2783,0.1033,0.3082
18:19:48:356,-6.4211,-4.319,0.7391,22.2019,0.2907,0.3688,0.0575,0.3108
18:19:48:376,-7.125,-4.5401,1.024,23.2687,0.3066,0.4839,-0.0437,0.3139
18:19:48:399,-8.688,-4.839,0.828,23.7187,0.3131,0.5456,-0.0799,0.3173
18:19:48:416,-9.684,-5.703,0.6671,22.8218,0.1682,0.5339,-0.0054,0.3209
18:19:48:437,-9.938,-6.819,1.158,22.753,-0.0459,0.3997,0.0032,0.3253
18:19:48:456,-9.7181,-7.125,1.862,23.5979,-0.2164,0.1408,-0.1449,0.3301
18:19:48:477,-10.211,-6.359,2.396,23.4189,-0.2685,-0.1415,-0.293,0.3345
18:19:48:498,-10.826,-5.835,2.118,23.3704,-0.2196,-0.3289,-0.243,0.337
18:19:48:516,-10.415,-6.053,1.436,23.2818,-0.2622,-0.4301,-0.1364,0.3371
18:19:48:538,-9.795,-5.9381,1.4861,23.185,-0.2494,-0.315,-0.1353,0.3354
18:19:48:556,-10.307,-6.2801,1.73,23.1553,-0.0364,0.0908,-0.0938,0.3327
18:19:48:576,-11.051,-7.245,1.788,23.5406,0.1405,0.4509,0.0297,0.3293
18:19:48:599,-11.411,-9.101,1.9721,22.7605,0.0562,0.6064,0.1811,0.3265
18:19:48:616,-10.956,-9.7811,3.0641,22.9021,-0.1258,0.454,0.2258,0.3259
18:19:48:637,-9.5291,-9.254,3.9041,23.6772,-0.2335,0.0333,0.1587,0.3276
18:19:48:657,-7.3841,-7.848,4.065,23.6616,-0.144,-0.3363,-0.0096,0.3306
18:19:48:676,-6.0281,-6.002,3.416,24.6778,0.2065,-0.4025,-0.2654,0.3332
18:19:48:699,-5.672,-4.379,2.0081,23.4774,0.6497,-0.1382,-0.4048,0.3341
18:19:48:716,-5.6861,-3.1841,0.701,24.6717,0.9383,0.242,-0.4294,0.3325
18:19:48:736,-5.8181,-2.2841,-0.155,25.4809,0.9107,0.4093,-0.341,0.3299
18:19:48:756,-5.87,-1.8701,-0.227,25.4765,0.6912,0.3613,-0.1981,0.3287
18:19:48:777,-5.93,-1.8131,0.0551,24.9804,0.5005,0.2687,-0.0437,0.3301
18:19:48:799,-5.844,-2.241,0.3491,25.802,0.4036,0.2485,0.114,0.3332
18:19:48:815,-5.763,-2.969,0.782,25.2539,0.3578,0.2516,0.1874,0.337
18:19:48:835,-5.882,-3.69,1.077,25.2581,0.3609,0.2709,0.2173,0.3406
18:19:48:855,-6.275,-4.406,1.4021,26.3199,0.3897,0.2985,0.2024,0.3444
18:19:48:878,-6.9911,-4.8221,1.134,25.4954,0.3844,0.2431,0.2269,0.3482
18:19:48:897,-7.652,-5.706,0.7151,25.9831,0.2481,0.2133,0.3003,0.3523
18:19:48:915,-8.42,-7.3961,0.7151,26.3576,0.0562,0.2496,0.3429,0.3564
18:19:48:937,-9.2081,-9.122,1.0961,26.4766,-0.0896,0.3178,0.2929,0.3603
18:19:48:956,-9.435,-9.426,1.929,26.3953,-0.1695,0.242,0.147,0.3637
18:19:48:976,-9.165,-8.1379,2.154,25.5061,-0.1716,0.0151,0.017,0.3664
18:19:48:996,-9.335,-7.343,1.1801,24.9207,-0.1844,-0.1628,-0.032,0.3682
18:19:49:016,-9.749,-7.338,0.356,26.3927,-0.3367,-0.1968,-0.0118,0.3685
18:19:49:034,-9.684,-7.2671,0.4691,25.3501,-0.5488,-0.1947,0.0265,0.3672
18:19:49:055,-9.1121,-6.0551,1.6781,24.6753,-0.6861,-0.2692,0.049,0.3654
18:19:49:075,-8.636,-6.297,2.6831,24.5176,-0.6617,-0.4141,0.1097,0.3632
18:19:49:097,-8.4011,-7.571,3.0311,23.157,-0.3719,-0.4375,0.0287,0.3605
18:19:49:115,-8.729,-7.88,2.109,22.8095,0.1042,-0.1595,-0.2046,0.3573
18:19:49:136,-9.6101,-6.9311,0.9431,22.739,0.3919,0.176,-0.3217,0.3536
18:19:49:156,-9.9191,-5.897,0.426,21.8916,0.2927,0.2377,-0.1972,0.3502
18:19:49:176,-8.7,-5.3921,0.7151,22.7801,-0.0129,0.0003,-0.0161,0.3481
18:19:49:199,-7.017,-4.7651,1.338,22.7426,-0.2483,-0.3055,0.0148,0.3474
18:19:49:216,-5.8871,-3.924,1.5941,21.193,-0.2569,-0.4493,-0.0395,0.3474
18:19:49:236,-4.9271,-3.0821,1.508,21.0234,-0.0971,-0.3715,-0.0917,0.3476
18:19:49:273,-4.398,-2.483,1.218,19.8243,0.1607,-0.133,-0.1844,0.3455
18:19:49:275,-4.484,-1.973,0.7061,19.8051,0.3865,0.1408,-0.2621,0.3423
18:19:49:295,-5.03,-1.791,0.198,19.817,0.4621,0.3092,-0.2834,0.3394
18:19:49:317,-5.823,-1.904,0.0281,19.7933,0.4047,0.3986,-0.2441,0.3384
18:19:49:336,-6.591,-2.387,0.047,19.7064,0.2714,0.4349,-0.1429,0.3393
18:19:49:355,-7.0991,-3.596,0.6911,19.6851,0.1128,0.4487,-0.0554,0.3408
18:19:49:376,-7.455,-4.5161,1.5341,19.7379,0.0562,0.4008,-0.0693,0.343
18:19:49:399,-7.956,-4.973,1.862,19.4152,0.084,0.2953,-0.1364,0.3455
18:19:49:415,-8.801,-5.516,1.5491,19.5242,0.0829,0.2016,-0.177,0.3483
18:19:49:436,-9.6251,-6.309,1.419,19.5193,-0.0129,0.159,-0.177,0.3509
18:19:49:455,-10.278,-6.963,1.9391,19.5066,-0.1504,0.0588,-0.1651,0.3529
18:19:49:477,-10.4891,-6.881,2.7431,19.4786,-0.2431,-0.1628,-0.1523,0.3545
18:19:49:499,-10.671,-6.362,3.179,19.5362,-0.2633,-0.4823,-0.1088,0.3559
18:19:49:516,-10.824,-6.635,2.7,20.0101,-0.2366,-0.77,-0.0213,0.3553
18:19:49:538,-10.455,-6.807,1.9631,19.1662,-0.1855,-0.821,0.0052,0.3531
18:19:49:555,-10.5461,-6.33,1.6061,19.0298,-0.0534,-0.5888,0.0191,0.3495
18:19:49:575,-11.2481,-6.4121,1.5821,18.8824,0.1363,-0.1191,0.1906,0.3448
18:19:49:595,-11.2931,-7.4771,1.707,18.4957,0.2768,0.2922,0.4643,0.3398
18:19:49:616,-10.632,-9.29,1.8191,19.7205,0.2375,0.437,0.6476,0.3362
18:19:49:637,-8.925,-9.8711,2.226,20.24,0.0595,0.1962,0.5752,0.3356
18:19:49:655,-7.554,-9.036,2.2721,20.2453,-0.111,-0.2234,0.2588,0.3382
18:19:49:676,-6.7511,-7.2551,1.9001,20.9099,-0.144,-0.4781,-0.0267,0.3424
18:19:49:695,-6.3731,-5.6411,1.295,20.6957,-0.0012,-0.3906,-0.2174,0.3456
18:19:49:717,-5.808,-4.161,0.869,20.7753,0.1852,-0.1489,-0.3431,0.3461
18:19:49:736,-5.274,-2.028,0.732,21.5231,0.3365,0.077,-0.4124,0.3441
18:19:49:757,-5.2481,-0.522,0.7151,22.1851,0.4505,0.2271,-0.3303,0.3414
18:19:49:777,-5.372,-0.431,0.512,21.4963,0.5453,0.3273,-0.1503,0.3396
18:19:49:801,-5.439,-1.149,0.081,22.1556,0.5835,0.452,0.0052,0.3394
18:19:49:815,-5.942,-2.1671,-0.035,21.9659,0.5368,0.5936,0.1107,0.3421
18:19:49:835,-6.792,-3.369,0.098,22.1067,0.3769,0.6458,0.2076,0.3468
18:19:49:855,-7.625,-4.623,0.734,21.5449,0.1415,0.6043,0.2769,0.3519
18:19:49:876,-8.0321,-5.258,1.6901,21.4221,-0.0609,0.3849,0.3196,0.3578
18:19:49:899,-8.468,-5.7821,1.946,21.3234,-0.209,0.0663,0.3631,0.3641
18:19:49:916,-8.643,-6.7781,1.97,21.2916,-0.3123,-0.1094,0.4335,0.3698
18:19:49:936,-8.487,-8.117,1.917,21.6586,-0.2974,-0.0861,0.4302,0.3745
18:19:49:956,-8.538,-9.122,1.874,21.695,-0.2014,0.0524,0.2662,0.3747
18:19:49:977,-8.772,-8.6861,1.8551,21.7039,-0.0747,0.1814,0.0595,0.3745
18:19:50:001,-9.32,-7.554,1.2761,21.7039,-0.0683,0.1323,-0.0448,0.3743
18:19:50:016,-9.818,-7.331,0.5141,22.3083,-0.2761,-0.0626,0.0095,0.3742
18:19:50:036,-9.8141,-7.4681,0.2411,21.58,-0.6073,-0.2501,0.0638,0.3739
18:19:50:056,-9.2441,-6.278,1.091,22.303,-0.8577,-0.3939,0.0808,0.3726
18:19:50:077,-9.0161,-5.7821,2.1641,22.3966,-0.9461,-0.5122,0.1768,0.3701
18:19:50:100,-8.7821,-6.965,3.2411,21.5682,-0.7671,-0.5378,0.2321,0.3664
18:19:50:117,-8.6569,-8.0231,3.0641,23.28,-0.2889,-0.3289,0.1012,0.3619
18:19:50:136,-9.201,-7.8011,2.1109,22.5748,0.1415,0.0142,-0.0938,0.3577
18:19:50:156,-9.66,-6.764,1.491,21.7987,0.2384,0.0865,-0.114,0.3549
18:19:50:176,-8.7431,-5.591,1.029,22.7435,0.0808,-0.1638,-0.0352,0.3536
18:19:50:198,-7.101,-4.497,0.629,22.7473,-0.177,-0.4727,-0.0118,0.3528
18:19:50:215,-5.892,-3.45,0.8021,22.2925,-0.2984,-0.575,-0.0672,0.3516
18:19:50:237,-5.2001,-2.7461,0.864,22.6631,-0.2175,-0.4727,-0.1236,0.3493
18:19:50:255,-4.872,-2.133,0.921,22.7014,-0.0364,-0.183,-0.1566,0.3468
18:19:50:276,-4.7141,-1.935,0.9881,22.6964,0.1702,0.1174,-0.1673,0.3447
18:19:50:296,-5.0561,-1.889,1.043,22.6865,0.2842,0.2463,-0.2024,0.3438
18:19:50:317,-5.825,-1.904,0.897,21.9946,0.3098,0.2186,-0.1929,0.3442
18:19:50:335,-6.486,-2.229,0.4301,22.0489,0.247,0.1569,-0.1088,0.3451
18:19:50:356,-6.716,-3.05,0.387,22.0555,0.1053,0.1004,-0.0395,0.3462
18:19:50:375,-7.178,-3.7331,0.591,22.0501,0.0052,0.06,-0.0522,0.3473
18:19:50:396,-7.7021,-4.2911,0.7901,22.0421,-0.0704,0.0663,-0.0758,0.3481
18:19:50:419,-8.267,-5.0381,1.2851,22.9236,-0.1013,0.0983,-0.1194,0.3489
18:19:50:435,-8.9921,-6.036,1.4531,22.1475,-0.1024,0.1462,-0.1481,0.3504
18:19:50:455,-9.8021,-7.2,1.8191,22.1033,-0.1642,0.1206,-0.2057,0.3508
18:19:50:476,-10.055,-7.257,2.2931,21.3672,-0.2366,-0.0488,-0.3154,0.3495
18:19:50:498,-10.707,-6.278,2.4461,21.3443,-0.2643,-0.2692,-0.3761,0.3467
18:19:50:515,-11.415,-6.137,1.877,21.2643,-0.3017,-0.4653,-0.2398,0.3431
18:19:50:535,-10.695,-6.9701,1.247,22.1306,-0.3953,-0.5046,-0.1279,0.3395
18:19:50:555,-9.8351,-6.311,1.862,22.2409,-0.3773,-0.346,-0.245,0.3358
18:19:50:575,-10.0001,-5.2631,2.379,21.2101,-0.128,-0.0637,-0.2749,0.3314
18:19:50:598,-10.848,-5.82,2.2481,21.9341,0.0989,0.2623,-0.1097,0.3273
18:19:50:616,-11.159,-8.009,1.9271,21.2005,0.1565,0.518,0.0564,0.3248
18:19:50:638,-10.9721,-9.1151,2.861,21.238,0.1064,0.7193,0.0692,0.3248
18:19:50:655,-10.683,-8.528,4.2229,21.2903,0.1394,0.5627,-0.0246,0.3271
18:19:50:676,-10.161,-6.9791,4.34,21.146,0.1767,0.0258,-0.0235,0.3305
18:19:50:699,-8.6021,-5.291,3.416,21.1288,0.1873,-0.4568,0.0766,0.3335
18:19:50:716,-7.005,-4.286,2.468,21.049,0.2608,-0.6432,0.1427,0.3346
18:19:50:735,-6.0311,-3.398,1.7591,21.0355,0.4462,-0.5142,0.1811,0.3338
18:19:50:755,-5.3081,-2.775,0.945,20.8084,0.6859,-0.2118,0.246,0.3324
18:19:50:775,-4.6661,-2.471,0.146,21.1732,0.7935,0.0375,0.2875,0.3329
18:19:50:795,-4.293,-2.382,-0.342,21.8779,0.6955,0.1419,0.2971,0.336
18:19:50:814,-4.446,-2.567,-0.2411,21.0285,0.5559,0.2058,0.2897,0.3406
18:19:50:835,-5.013,-3.249,0.098,21.512,0.4814,0.3156,0.3003,0.3458
18:19:50:858,-5.6141,-4.092,0.588,19.9281,0.4738,0.4529,0.2865,0.3509
18:19:50:882,-6.17,-4.935,0.8921,19.7619,0.4823,0.5254,0.2619,0.3563
18:19:50:897,-6.5981,-5.531,1.07,19.567,0.4388,0.5276,0.2034,0.3622
18:19:50:915,-7.0511,-6.278,0.921,19.4776,0.3194,0.3912,0.1607,0.3683
18:19:50:935,-7.767,-7.6421,0.399,19.4848,0.1031,0.3039,0.0936,0.3738
18:19:50:955,-8.444,-9.2441,0.584,18.0793,-0.1173,0.3699,-0.0267,0.3781
18:19:50:975,-8.411,-9.881,1.271,18.7182,-0.2207,0.5052,-0.2749,0.3814
18:19:50:995,-8.432,-8.969,2.4611,18.7406,-0.227,0.4498,-0.5944,0.3838
18:19:51:016,-9.356,-7.082,2.643,19.6358,-0.0993,0.0737,-0.6893,0.3846
18:19:51:036,-9.9311,-6.96,0.38,19.5791,-0.111,-0.2106,-0.5486,0.3825
18:19:51:055,-9.96,-6.905,-1.053,19.6727,-0.5083,-0.2458,-0.4113,0.3784
18:19:51:079,-10.0511,-5.928,0.263,19.721,-0.9962,-0.2277,-0.2163,0.3739
18:19:51:095,-9.596,-6.7901,2.925,20.4996,-1.1879,-0.3737,0.0351,0.3689
18:19:51:116,-8.758,-7.997,4.28,20.5203,-0.88,-0.6027,0.0148,0.3636
18:19:51:135,-8.7431,-8.016,3.3251,20.3991,-0.3102,-0.5622,-0.2078,0.3578
18:19:51:155,-9.689,-7.178,2.051,19.5227,0.052,-0.2885,-0.2791,0.3518
18:19:51:175,-9.773,-6.053,1.599,20.3893,0.1426,-0.1968,-0.1429,0.3463
18:19:51:195,-8.3921,-5.093,1.182,20.3263,0.0382,-0.4034,0.0245,0.3422
18:19:51:217,-6.684,-3.984,0.696,21.3403,-0.1792,-0.7167,0.066,0.3393
18:19:51:235,-5.5061,-2.7251,0.6581,21.4591,-0.3091,-0.8466,0.0564,0.3366
18:19:51:255,-5.006,-1.8581,0.7181,19.643,-0.2441,-0.7156,0.0532,0.333
18:19:51:281,-4.7711,-1.559,0.596,20.6218,-0.08,-0.4386,0.0894,0.3289
18:19:51:299,-4.788,-1.796,0.452,20.6218,0.051,-0.1585,0.0894,0.3252
18:19:51:314,-5.222,-2.3081,0.4901,20.5399,0.0776,0.029,0.0638,0.3228
18:19:51:335,-5.562,-2.864,0.995,20.5134,0.1192,0.1771,0.0276,0.3216
18:19:51:356,-6.0761,-3.383,1.3331,22.0129,0.2705,0.3273,-0.0448,0.3215
18:19:51:375,-6.7781,-3.915,0.9671,21.9332,0.3865,0.4498,-0.081,0.3225
18:19:51:395,-7.17,-4.647,0.627,21.154,0.3439,0.5233,-0.1258,0.3246
18:19:51:416,-7.934,-5.361,0.624,20.6422,0.2171,0.5669,-0.212,0.3275
18:19:51:435,-9.177,-6.1841,1.005,21.6387,0.034,0.4924,-0.2856,0.3313
18:19:51:455,-10.2971,-6.6371,1.503,22.1514,-0.1727,0.2974,-0.3538,0.3351
18:19:51:475,-11.0441,-6.455,2.149,22.2637,-0.406,-0.0168,-0.3249,0.3383
18:19:51:495,-11.1041,-5.7701,3.033,22.9866,-0.551,-0.4162,-0.2355,0.34
18:19:51:518,-11.178,-5.351,3.114,23.1286,-0.5275,-0.7572,-0.0736,0.3393
18:19:51:536,-10.898,-6.6011,2.432,24.1025,-0.4455,-0.8093,0.1331,0.3362
18:19:51:555,-9.993,-7.563,2.382,22.4566,-0.3358,-0.6666,0.1012,0.3317
18:19:51:576,-9.938,-6.963,2.573,23.9212,-0.0364,-0.3354,-0.0374,0.3267
18:19:51:595,-10.422,-6.7811,2.154,23.8947,0.3098,0.1334,0.0297,0.3221
18:19:51:617,-10.7351,-7.592,1.68,23.8557,0.4547,0.4785,0.1587,0.3195
18:19:51:636,-10.767,-8.624,1.4861,24.5869,0.2992,0.5307,0.2567,0.3199
18:19:51:655,-10.1561,-8.813,2.097,24.5208,-0.0087,0.3497,0.2993,0.3228
18:19:51:675,-8.751,-8.277,3.27,26.098,-0.1801,0.0514,0.2428,0.3266
18:19:51:695,-7.19,-6.69,3.794,26.1802,-0.0524,-0.2309,0.0714,0.3299
18:19:51:717,-6.56,-5.042,2.798,26.2088,0.2481,-0.3022,-0.0448,0.3313
18:19:51:738,-6.134,-3.615,1.6541,27.8218,0.4653,-0.1628,-0.0395,0.3305
18:19:51:755,-5.882,-2.603,0.948,27.9945,0.5698,0.0099,0.0543,0.3294
18:19:51:775,-5.619,-2.2361,0.5981,28.8492,0.5783,0.1291,0.2034,0.3302
18:19:51:796,-5.2601,-2.378,0.44,29.0101,0.509,0.1643,0.3429,0.3332
18:19:51:815,-4.934,-2.991,0.533,28.9053,0.3939,0.128,0.4207,0.3377
18:19:51:837,-4.6451,-3.5801,0.768,29.8327,0.2938,0.0972,0.41,0.3427
18:19:51:855,-4.824,-4.0991,1.07,29.8182,0.2938,0.1569,0.3409,0.3474
18:19:51:876,-5.3081,-4.724,1.2851,30.009,0.3344,0.2953,0.263,0.3516
18:19:51:895,-5.909,-5.21,1.707,30.6605,0.393,0.404,0.1726,0.3559
18:19:51:920,-6.888,-5.531,1.704,30.0769,0.4621,0.4466,0.1086,0.3604
18:19:51:936,-7.8701,-6.465,1.11,30.6852,0.4441,0.4455,0.1277,0.3651
18:19:51:958,-8.636,-7.7621,0.608,30.742,0.2694,0.4498,0.1172,0.369
18:19:51:975,-9.2081,-8.9111,0.6941,30.5901,0.0169,0.4444,0.0415,0.3725
18:19:51:996,-9.39,-8.907,1.7141,31.255,-0.209,0.3135,-0.1023,0.3754
18:19:52:018,-9.0791,-7.607,2.085,31.2579,-0.242,0.0364,-0.2057,0.3769
18:19:52:035,-9.249,-6.9551,0.912,31.2066,-0.2835,-0.1552,-0.2291,0.3763
18:19:52:055,-9.704,-7.061,-0.2441,31.8798,-0.4965,-0.1649,-0.1929,0.3739
18:19:52:075,-9.404,-6.369,0.366,31.78,-0.8757,-0.1489,-0.114,0.371
18:19:52:096,-9.014,-6.503,2.561,31.8632,-1.0985,-0.2064,0.0043,0.3676
18:19:52:118,-8.7341,-7.4561,4.551,31.7082,-0.8961,-0.3161,0.0052,0.3637
18:19:52:135,-8.636,-7.9391,4.718,32.3802,-0.2483,-0.3108,-0.1546,0.3594
18:19:52:155,-9.476,-7.494,2.5301,31.5274,0.2875,-0.118,-0.2876,0.355
18:19:52:178,-10.1111,-6.675,1.082,31.5035,0.312,-0.0051,-0.1886,0.3514
18:19:52:195,-9.191,-6.11,0.744,32.3833,0.0414,-0.1415,0.0043,0.3491
18:19:52:216,-7.443,-5.208,1.065,30.8251,-0.2526,-0.4162,0.0671,0.3477
18:19:52:235,-6.311,-4.142,1.4141,31.8167,-0.3901,-0.6336,0.034,0.346
18:19:52:255,-5.528,-3.2951,1.388,31.1051,-0.3367,-0.6783,0.0085,0.3428
18:19:52:275,-5.162,-2.739,1.094,31.1497,-0.1866,-0.4833,-0.0139,0.3385
18:19:52:295,-4.9271,-2.339,1.079,32.1945,-0.014,-0.2288,-0.0384,0.3348
18:19:52:318,-5.2931,-1.925,1.0549,31.7017,0.0946,-0.1211,-0.0758,0.3328
18:19:52:335,-5.846,-1.805,0.852,31.7185,0.1235,-0.1148,-0.048,0.3323
18:19:52:355,-6.287,-2.1071,0.6,31.8203,0.0883,-0.0881,0.0074,0.332
18:19:52:375,-6.6701,-2.8661,0.8471,31.8181,0.0436,0.0375,0.0692,0.3316
18:19:52:398,-6.986,-4.1111,1.5251,31.8294,0.0861,0.2144,0.0745,0.3315
18:19:52:418,-7.5251,-4.779,2.03,31.8033,0.2278,0.2879,-0.0235,0.3321
18:19:52:436,-8.631,-4.968,1.0511,31.2678,0.3151,0.2548,-0.114,0.3334
18:19:52:454,-9.404,-5.3111,0.0281,32.7048,0.0329,0.1654,-0.0608,0.3357
18:19:52:475,-9.962,-6.1961,0.936,32.999,-0.4976,-0.0392,-0.0139,0.3381
18:19:52:495,-10.094,-6.7901,2.904,31.9348,-0.7736,-0.3044,-0.0374,0.3396
18:19:52:517,-10.278,-6.462,3.971,32.3394,-0.6989,-0.5356,-0.1225,0.3386
18:19:52:535,-10.604,-5.4971,3.732,31.9606,-0.454,-0.6655,-0.1173,0.3352
18:19:52:555,-10.1111,-5.318,2.631,32.7077,-0.3358,-0.6826,-0.0043,0.3302
18:19:52:575,-9.249,-5.148,2.262,32.7535,-0.2963,-0.5835,-0.0022,0.325
18:19:52:595,-9.7631,-5.495,2.099,32.3787,-0.0874,-0.199,-0.0085,0.3196
18:19:52:619,-10.901,-6.776,1.848,32.4389,0.1394,0.3422,0.0777,0.3151
18:19:52:635,-12.213,-8.2031,1.805,32.3774,0.1394,0.7204,0.2482,0.313
18:19:52:655,-12.0881,-9.555,3.0161,32.2524,-0.1238,0.763,0.4975,0.3141
18:19:52:678,-10.175,-9.759,4.802,32.813,-0.2793,0.34,0.507,0.3179
18:19:52:695,-8.178,-8.7221,5.276,32.3291,-0.1173,-0.1467,0.3472,0.3227
18:19:52:715,-6.2801,-7.109,4.254,32.2993,0.2438,-0.3971,0.1107,0.3263
18:19:52:736,-5.4251,-5.2871,2.7821,32.519,0.6082,-0.3609,-0.114,0.3279
18:19:52:755,-5.1761,-3.915,1.0361,32.0978,0.9075,-0.0989,-0.2387,0.3275
18:19:52:775,-5.301,-2.636,-0.237,32.7211,0.9426,0.2527,-0.2387,0.3268
18:19:52:794,-5.408,-1.8701,-0.311,32.1242,0.7893,0.5116,-0.0949,0.3276
18:19:52:814,-5.226,-1.884,0.4571,31.8596,0.6187,0.5371,0.066,0.3307
18:19:52:836,-5.19,-2.363,0.9911,31.9644,0.5207,0.4306,0.1598,0.3355
18:19:52:853,-5.346,-3.06,1.218,31.5502,0.4823,0.355,0.2067,0.3411
